S5_Timestamp_FormattedUnix_CAL;S5_Accel_LN_X_CAL;S5_Accel_LN_Y_CAL;S5_Accel_LN_Z_CAL;S5_Gyro_X_CAL;S5_Gyro_Y_CAL;S5_Gyro_Z_CAL;S5_Mag_X_CAL;S5_Mag_Y_CAL;S5_Mag_Z_CAL;S5_Quat_Madge_9DOF_W_LN_CAL;S5_Quat_Madge_9DOF_X_LN_CAL;S5_Quat_Madge_9DOF_Y_LN_CAL;S5_Quat_Madge_9DOF_Z_LN_CAL
yyyy/mm/dd hh:mm:ss.000;m/(s^2);m/(s^2);m/(s^2);deg/s;deg/s;deg/s;local_flux;local_flux;local_flux;no_units;no_units;no_units;no_units
2017/12/05 16:23:32.841;-0.423481013638278;9.58536585365854;2.10419892480338;0.20588764466796;1.14664978424161;-1.20053061780703;0.123222748815166;-0.956719817767654;0.150341685649203;0.999987464744607;0.00498999001665075;0.00033792765464285;0.00023697718890649
2017/12/05 16:23:32.881;-0.411046171315869;9.54878048780488;2.08022688768443;0.382590369516239;-0.31111536723196;0.854350641501555;0.125592417061611;-0.96127562642369;0.145785876993166;0.999949688084066;0.00999462203876948;0.000543377950195845;0.000658461301046787
2017/12/05 16:23:32.891;-0.276792773264548;9.5609756097561;2.06952122889386;0.406128518536354;-1.26317920189192;0.750597950160435;0.125592417061611;-0.954441913439636;0.157175398633257;0.999886699986102;0.0150025555591239;0.000594491933138763;0.00107568440545714
2017/12/05 16:23:32.901;-0.22825810278214;9.62195121951219;2.09410296114085;0.199116146133673;-2.15412053682394;0.586032502363708;0.12085308056872;-0.954441913439636;0.148063781321185;0.999798912765665;0.0199923210611959;0.000542626521677296;0.00146515788820399
2017/12/05 16:23:32.911;-0.179241552776841;9.60975609756098;2.07049674109874;0.0820630791548547;-1.28494972060141;-0.0980687870597116;0.118483412322275;-0.954441913439636;0.152619589977221;0.99968644094517;0.0249703255528632;0.000544185626100558;0.00179066863677225
2017/12/05 16:23:32.921;-0.179362022657564;9.63414634146341;2.08254372917101;0.452826919267932;-0.510040569073684;-0.433159431512055;0.127962085308057;-0.965831435079727;0.148063781321185;0.999548203913531;0.0299759666166889;0.000617067362004141;0.00210919570001167
2017/12/05 16:23:32.931;-0.215823260459731;9.63414634146341;2.07013092402191;0.628252453392094;0.584001353466963;-0.911481791476944;0.123222748815166;-0.947608200455581;0.154897494305239;0.999384392010799;0.0349928268893177;0.000810241334160147;0.00238381636875622
2017/12/05 16:23:32.941;-0.325568383508402;9.59756097560975;2.06903347279142;-0.130703634059826;2.69190084758181;-1.41398793518528;0.12085308056872;-0.958997722095672;0.152619589977221;0.999197980838403;0.0399376644505723;0.00125107864287781;0.00261014346757811
2017/12/05 16:23:32.951;-0.447266469356591;9.59756097560975;2.04372010639077;0.154917273828975;2.73272024932555;-0.957350197304949;0.118483412322275;-0.949886104783599;0.148063781321185;0.998985811666791;0.0448997791166664;0.00176160695256438;0.0028730932217752
2017/12/05 16:23:32.961;-0.422517254592496;9.59756097560975;2.00782302022516;0.430100816533925;0.796361172519126;-0.967433439507179;0.113744075829384;-0.956719817767654;0.150341685649203;0.998748038911121;0.0498825286776931;0.002091149467596;0.00311692120732386
2017/12/05 16:23:32.971;-0.361306802026233;9.57317073170732;1.98433873920865;-0.0374226303712707;-0.16108262535327;-0.533189809604965;0.12085308056872;-0.949886104783599;0.154897494305239;0.998487787867046;0.0548190677712952;0.002305950078684;0.00341904713246327
2017/12/05 16:23:32.981;-0.33752134630792;9.68292682926829;2.04481755762126;-0.13930982366608;-1.11388795660794;-0.562792841475553;0.118483412322275;-0.956719817767654;0.150341685649203;0.998204023812945;0.059742011735528;0.00242410511359717;0.00370710019224682
2017/12/05 16:23:32.991;-0.276913243145271;9.57317073170732;2.08156821696614;-0.542306679313681;-2.10751114119542;-1.04918845231879;0.127962085308057;-0.956719817767654;0.148063781321185;0.997898888811299;0.064622769793386;0.00243110321776412;0.00397430126559168
2017/12/05 16:23:33.001;-0.301903397670812;9.5;2.1415592792763;-0.451986505027253;-1.80775358134436;-0.767758355730911;0.123222748815166;-0.956719817767654;0.154897494305239;0.997569475180091;0.0695045158329825;0.00248050049598092;0.00425577079156109
2017/12/05 16:23:33.011;-0.314458709873944;9.51219512195122;2.17757830446752;-0.248100125759083;0.602379966808967;-1.23648382159259;0.12085308056872;-0.947608200455581;0.148063781321185;0.997214840454794;0.0743954921764171;0.00275053719223722;0.00450635836367196
2017/12/05 16:23:33.021;-0.412250870123096;9.60975609756098;2.2006967684072;0.293136445835861;2.72441204251332;-0.126529516082504;0.125592417061611;-0.96127562642369;0.152619589977221;0.99683183881777;0.079321953370056;0.00325124693953458;0.00487259951972455
2017/12/05 16:23:33.031;-0.387381185478278;9.62195121951219;2.15275269416931;1.27885458035505;2.16457262769738;-0.118382285623485;0.123222748815166;-0.945330296127563;0.152619589977221;0.996417604498779;0.0843260230234165;0.00369165821199964;0.00523936500107065
2017/12/05 16:23:33.041;-0.313374480947439;9.52439024390244;2.06915541181703;1.45090462759062;1.6686285342;-0.448329970680444;0.12085308056872;-0.963553530751708;0.148063781321185;0.995977526194064;0.0893384588440609;0.00405327161706153;0.00556579526376799
2017/12/05 16:23:33.051;-0.337400876427197;9.58536585365854;2.03277056954898;1.38866214708135;2.85770449789371;0.159958682640843;0.12085308056872;-0.956719817767654;0.148063781321185;0.995512411743285;0.0943348142337457;0.00452675826081625;0.00595729369780897
2017/12/05 16:23:33.061;-0.361547741787678;9.57317073170732;2.00843271535321;1.3884129621123;2.28555412173777;-0.113657256984701;0.123222748815166;-0.956719817767654;0.145785876993166;0.995023010988171;0.099320150907418;0.00496732413722778;0.00632778939893469
2017/12/05 16:23:33.070;-0.386296956551773;9.59756097560975;2.04432980151882;0.885944527271112;1.28134103770469;-1.05392222735237;0.123222748815166;-0.949886104783599;0.157175398633257;0.99451470795267;0.10425043585918;0.00534488266591239;0.0066162314253756
2017/12/05 16:23:33.080;-0.422878664234664;9.64634146341463;2.04396398444199;0.3715007416261;1.24963628427176;-0.909165492228764;0.12085308056872;-0.958997722095672;0.150341685649203;0.993987437306464;0.109125557256514;0.00573523200560785;0.00690610919587123
2017/12/05 16:23:33.090;-0.398370389232014;9.63414634146341;2.03216087442093;-0.163578876476584;2.17878523409291;-0.0267836210918049;0.130331753554502;-0.954441913439636;0.157175398633257;0.9934412565229;0.113941663590341;0.00618978472371219;0.00731120383665905
2017/12/05 16:23:33.100;-0.275949484099489;9.52439024390244;1.98519231238792;0.287233332984139;-1.32823109991738;-0.308508767717159;0.125592417061611;-0.958997722095672;0.150341685649203;0.992869906063672;0.118791225262579;0.00628082291264838;0.00765151601124052
2017/12/05 16:23:33.110;-0.275588074457321;9.59756097560975;1.94905134817109;-0.0437273719980822;-1.47385871029567;-0.874340770735594;0.130331753554502;-0.956719817767654;0.154897494305239;0.992279867010104;0.123599528455092;0.00636821281881246;0.00795411576373117
2017/12/05 16:23:33.120;-0.312290252020934;9.80487804878049;1.96073251916654;-0.148796897823859;0.198738899968968;-0.206719043795431;0.130331753554502;-0.956719817767654;0.154897494305239;0.991667291473286;0.12838575966969;0.00661082501374178;0.00832926939840012
2017/12/05 16:23:33.130;-0.20242465909154;9.70731707317073;1.94978298232475;-0.87212955930551;-2.81725314301761;-1.1793755620815;0.12085308056872;-0.952164009111617;0.150341685649203;0.991043547517729;0.133102647631569;0.00654768668412269;0.00857320920238511
2017/12/05 16:23:33.140;-0.202906538614431;9.65853658536585;1.99797093461386;-1.75446751479789;-4.62330482431552;-2.11732392245702;0.12085308056872;-0.963553530751708;0.154897494305239;0.990410864974695;0.13773229327675;0.00634243897004221;0.00871248510563559
2017/12/05 16:23:33.150;-0.25192308861973;9.59756097560975;2.02157715465597;-2.42916074236833;-4.12308788351796;-2.21466096741693;0.123222748815166;-0.954441913439636;0.150341685649203;0.989765965464541;0.142289970682214;0.00621072567336192;0.0088501264346417
2017/12/05 16:23:33.160;-0.31301307130527;9.5609756097561;2.0330144476002;-2.16520327617958;-4.23551071475376;-3.07525227651546;0.123222748815166;-0.956719817767654;0.150341685649203;0.989098785129554;0.146856812310455;0.00611487751258284;0.00890383098778325
2017/12/05 16:23:33.170;-0.288143386660452;9.53658536585366;1.98507037336231;-2.85253578473701;-1.30258162882898;-2.87345587655686;0.118483412322275;-0.952164009111617;0.148063781321185;0.988419221065871;0.1513515685591;0.0062566210139255;0.00900004531797828
2017/12/05 16:23:33.180;-0.666997655215378;9.57317073170732;2.06561918007435;-4.64712298975471;-2.00885944253228;-3.35006179820896;0.123222748815166;-0.958997722095672;0.150341685649203;0.987746483383859;0.155668345351686;0.00653892105359646;0.0090273656036825
2017/12/05 16:23:33.190;-0.717821253431518;9.57317073170732;2.26993022120062;-2.27577819808905;-7.45099872676813;-2.25262354103842;0.130331753554502;-0.949886104783599;0.150341685649203;0.987025941762365;0.160176508888902;0.00637218805180495;0.00909238734941938
2017/12/05 16:23:33.200;-0.657815499672483;9.54878048780488;2.36691582090689;-1.6199598268986;-8.75108651303735;-0.83688576131737;0.125592417061611;-0.96127562642369;0.148063781321185;0.986276378325113;0.164732791220452;0.0060447440039912;0.0092452217140932
2017/12/05 16:23:33.210;-0.548190846504535;9.40243902439024;2.38006026020965;-0.7877567732777;-7.62425506817621;-0.0555824410784102;0.130331753554502;-0.956719817767654;0.148063781321185;0.985493657555531;0.169348541256683;0.00575755089842858;0.00949595175362703
2017/12/05 16:23:33.220;-0.461990239412732;9.31707317073171;2.29658491688298;0.640234305342244;-7.57038630531961;0.608978489600577;0.125592417061611;-0.96127562642369;0.143507972665148;0.984668465530507;0.174076920345204;0.00542345186738265;0.00978902256453296
2017/12/05 16:23:33.230;-0.253971076592018;9.57317073170732;2.22637595188468;2.82687803276418;-4.37059561801088;2.86894152877328;0.125592417061611;-0.96127562642369;0.143507972665148;0.983784286602695;0.178981625145126;0.00522183508627143;0.0103338149958053
2017/12/05 16:23:33.240;-0.227776223259249;9.69512195121951;2.04591500885174;1.8998765337752;1.44196031714246;2.55132078197225;0.12085308056872;-0.96127562642369;0.143507972665148;0.982889626811778;0.183788598758581;0.00550772471941232;0.0109269135887923
2017/12/05 16:23:33.250;-0.226571524452021;9.75609756097561;1.92544512812897;0.991123293128857;-0.873631602161266;1.13017988329759;0.127962085308057;-0.949886104783599;0.148063781321185;0.981990598754023;0.188502730764886;0.00562204010941645;0.0113831945386239
2017/12/05 16:23:33.260;-0.177193564804554;9.65853658536585;1.86569794387003;0.217241709042692;-3.22159641526236;-0.0793902438091395;0.118483412322275;-0.956719817767654;0.145785876993166;0.981086195165241;0.193139729688485;0.00552857560431571;0.0116772138730181
2017/12/05 16:23:33.270;-0.214498091771781;9.71951219512195;1.93761405522686;-1.0099428433785;-2.88437110035105;-0.51901704507684;0.127962085308057;-0.952164009111617;0.150341685649203;0.980183629791047;0.197653269917674;0.00549599244708065;0.0119595504731729
2017/12/05 16:23:33.280;-0.264116991180694;9.64634146341463;2.02145521563036;-2.11209089378923;-2.65197102659444;-1.06613485946721;0.130331753554502;-0.954441913439636;0.148063781321185;0.979282606134032;0.202055238194728;0.0055203638022994;0.012197689326296
2017/12/05 16:23:33.290;-0.302023867551535;9.57317073170732;2.15360626734858;-1.89256507399821;-4.72067086487817;-1.45787569070051;0.125592417061611;-0.952164009111617;0.148063781321185;0.978361820332588;0.206461626956293;0.00539664680044626;0.0123539998938226
2017/12/05 16:23:33.300;-0.279081700998281;9.51219512195122;2.29841400226713;-1.11038741179849;-4.25024445083093;-1.60187866879844;0.130331753554502;-0.956719817767654;0.14123006833713;0.977409495000888;0.210916811720922;0.00531024221566451;0.0125131508102892
2017/12/05 16:23:33.310;-0.377114801008879;9.51219512195122;2.34562644235136;-0.531985237998795;0.253650220411126;-1.15927317575709;0.130331753554502;-0.954441913439636;0.148063781321185;0.976426275329585;0.215398101185272;0.00565314009028608;0.0127839297124653
2017/12/05 16:23:33.320;-0.437843374052251;9.51219512195122;2.32092277107875;0.938468829549107;2.50366978127952;-0.745192953972866;0.123222748815166;-0.96127562642369;0.145785876993166;0.975395309832086;0.219985694530348;0.00620729826365043;0.0131054648080931
2017/12/05 16:23:33.330;-0.375548692559483;9.5609756097561;2.18901559741175;2.07582909539371;2.52927997880788;-0.280494098639437;0.127962085308057;-0.949886104783599;0.145785876993166;0.974321974702191;0.224654315126543;0.00672584347648242;0.0134867096423737
2017/12/05 16:23:33.340;-0.325447913627679;9.64634146341463;2.05698648471914;1.99305781064879;4.2203171713574;0.0560287038973833;0.127962085308057;-0.949886104783599;0.145785876993166;0.973228525660555;0.229298931947017;0.00735364529573167;0.0139341504729755
2017/12/05 16:23:33.350;-0.336437117381415;9.68292682926829;1.93639466497076;1.51921435141789;4.31382340375918;-0.217438711772352;0.132701421800948;-0.954441913439636;0.148063781321185;0.972125027462011;0.233885540409116;0.00800035182637262;0.0143693889979885
2017/12/05 16:23:33.360;-0.348510550061656;9.64634146341463;1.92422573787288;0.813237018921138;1.46434504689876;-1.20001149774309;0.127962085308057;-0.956719817767654;0.150341685649203;0.971020327437766;0.238398079612525;0.0084290699325352;0.0146570842866504
2017/12/05 16:23:33.370;-0.385815077028882;9.64634146341463;1.99614184922971;-0.508533592443607;-0.118722850861072;-1.74344865065528;0.130331753554502;-0.954441913439636;0.154897494305239;0.969927598029185;0.242780893130742;0.00875510073129215;0.0148741629398094
2017/12/05 16:23:33.380;-0.411046171315869;9.53658536585366;2.08022688768443;-1.02300040425734;-1.76885238224423;-1.63215965757356;0.135071090047393;-0.956719817767654;0.138952164009112;0.96883087716513;0.24710246226782;0.00895445003738712;0.0150639442760896
2017/12/05 16:23:33.390;-0.399816027800687;9.51219512195122;2.17672473128826;-0.706806426412298;-3.02282336189819;-1.80238393120947;0.132701421800948;-0.952164009111617;0.152619589977221;0.967712374729286;0.25143423539767;0.00905099696805536;0.0152205295466245
2017/12/05 16:23:33.400;-0.412130400242374;9.5;2.18864978033492;-0.159318284244375;-0.71704113517229;-0.913133078837573;0.130331753554502;-0.958997722095672;0.14123006833713;0.966562698617012;0.255792559896288;0.00932657496947513;0.0154832471801865
2017/12/05 16:23:33.410;-0.42444477268406;9.57317073170732;2.20057482938159;0.221881163305366;0.868232090523708;-0.590228719541716;0.132701421800948;-0.947608200455581;0.14123006833713;0.965386276174877;0.260162299197472;0.00973658786351077;0.0158150152154902
2017/12/05 16:23:33.420;-0.411889460480928;9.65853658536585;2.16455580419037;0.468338699900641;1.10838266046562;-0.399536848377853;0.127962085308057;-0.958997722095672;0.143507972665148;0.964186807820989;0.264536779955252;0.0101509030438418;0.0161570678736194
2017/12/05 16:23:33.430;-0.326411672673461;9.60975609756098;2.15336238929736;0.383409843303776;0.472426770824679;-0.344038655841528;0.130331753554502;-0.952164009111617;0.148063781321185;0.962973027673415;0.268887777471246;0.0104729235698394;0.0165114800054618
2017/12/05 16:23:33.440;-0.228378572662863;9.53658536585366;2.10614994921313;0.831943215257733;-0.687042927018575;-0.887235286039636;0.130331753554502;-0.96127562642369;0.143507972665148;0.961734049128424;0.273261267682423;0.0106630619369991;0.0167987333382272
2017/12/05 16:23:33.450;-0.26483981046503;9.59756097560975;2.09373714406402;0.912051786647955;0.827315138891813;-1.03711146860638;0.130331753554502;-0.96127562642369;0.143507972665148;0.960475600306168;0.277620379157736;0.0110017391526078;0.0171028660884482
2017/12/05 16:23:33.460;-0.350558538033943;9.69512195121951;2.12902453510159;1.05543146187259;3.10269549714513;-1.64625168123023;0.130331753554502;-0.954441913439636;0.145785876993166;0.959196316648552;0.281966765941401;0.0115870530341052;0.0174042878160298
2017/12/05 16:23:33.470;-0.386537896313219;9.5609756097561;2.06842377766337;0.970217605667316;3.12159824863573;-2.02366752620518;0.127962085308057;-0.954441913439636;0.148063781321185;0.957903406923177;0.286286670508479;0.0122009590078662;0.0176675378428571
2017/12/05 16:23:33.480;-0.471533804597795;9.4390243902439;2.03142924026727;0.755467052011616;2.9269674834922;-2.227761964954;0.127962085308057;-0.954441913439636;0.150341685649203;0.95660072503729;0.290567722790761;0.0128472321247836;0.0178997194686145
2017/12/05 16:23:33.490;-0.61761969556791;9.51219512195122;2.0058719958154;0.819143319298842;4.29767033605023;-1.62785054904712;0.125592417061611;-0.954441913439636;0.150341685649203;0.955278676335834;0.294830709359994;0.0136587259708738;0.0181918267689707
2017/12/05 16:23:33.500;-0.653719523727909;9.5609756097561;1.95731822644947;0.53376985781526;4.67810571502015;-0.337046539836984;0.125592417061611;-0.954441913439636;0.145785876993166;0.953945858356458;0.299051606941465;0.0144802878745682;0.018594541493616
2017/12/05 16:23:33.510;-0.59311142056526;9.65853658536585;1.99406888579435;0.578887099330374;1.3877358947056;0.409466505233778;0.127962085308057;-0.947608200455581;0.159453302961276;0.952599114405111;0.303264427935428;0.0149809278582443;0.0190048884264853
2017/12/05 16:23:33.520;-0.459339902036831;9.59756097560975;2.03155117929288;-0.501069341708829;-2.14058536125839;0.745374249893598;0.12085308056872;-0.956719817767654;0.150341685649203;0.951270539202317;0.307378734753648;0.0151079355315626;0.0193500633320125
2017/12/05 16:23:33.530;-0.374825873275147;9.60975609756098;2.11673366897809;-1.17783115543803;-4.06534458601793;1.08816510708774;0.125592417061611;-0.954441913439636;0.159453302961276;0.949948646878719;0.311421595728188;0.0150311099794103;0.0197033941285799
2017/12/05 16:23:33.540;-0.26568309963009;9.57317073170732;2.17806606056996;-1.44445735188746;-4.57878179404676;0.994669571090858;0.127962085308057;-0.954441913439636;0.143507972665148;0.948622584776171;0.315424445889917;0.0148630545950469;0.0200424598221125
2017/12/05 16:23:33.549;-0.229583271470091;9.59756097560975;2.2266198299359;-0.788961968388001;-1.9416817488147;0.522183958625551;0.127962085308057;-0.947608200455581;0.148063781321185;0.94726314064879;0.319457413177607;0.0149129520689487;0.0204232072567066
2017/12/05 16:23:33.559;-0.204954526586718;9.54878048780488;2.20276973184257;-0.00733055475529645;0.771780001085106;-0.022175600189913;0.127962085308057;-0.947608200455581;0.148063781321185;0.945866171029385;0.323530954349018;0.0151929892913166;0.0208346143860919
2017/12/05 16:23:33.569;-0.290070904752017;9.60975609756098;2.17782218251874;0.26692389680082;3.78822601116676;-0.607775095495601;0.132701421800948;-0.949886104783599;0.150341685649203;0.944444983122084;0.327600173385885;0.0157831970110232;0.0212765350838965
2017/12/05 16:23:33.579;-0.435915855960687;9.60975609756098;2.12817096192232;0.329848697173844;5.34690231289696;-0.650896947789791;0.130331753554502;-0.954441913439636;0.150341685649203;0.943006421845926;0.33165064218629;0.0165704504235554;0.0217292445226703
2017/12/05 16:23:33.589;-0.459701311679;9.65853658536585;2.06769214350972;1.37251018691527;3.63280313647094;-0.194080666761112;0.132701421800948;-0.952164009111617;0.145785876993166;0.941525457218759;0.335770837960311;0.0172152029624338;0.0221674213971747
2017/12/05 16:23:33.599;-0.287541037256838;9.63414634146341;1.92483543300093;0.930886626779857;3.23751053512717;0.000837561413482652;0.132701421800948;-0.954441913439636;0.148063781321185;0.94004244212309;0.339842796788376;0.0177365567155953;0.0226383531686167
2017/12/05 16:23:33.609;-0.287300097495393;9.5609756097561;1.90074145685637;-0.673507611678781;3.32384770069639;-1.06858247508534;0.132701421800948;-0.947608200455581;0.145785876993166;0.938596156429348;0.343761923741333;0.0182943210963521;0.0230285200856854
2017/12/05 16:23:33.619;-0.385453667386714;9.57317073170732;1.96000088501288;-1.27540188216115;3.00886642001476;-1.34049979270178;0.123222748815166;-0.949886104783599;0.148063781321185;0.937157617556;0.347611499326767;0.0188729288430009;0.0233593225382541
2017/12/05 16:23:33.629;-0.545058629605743;9.65853658536585;2.06683857033045;-1.88878058019404;3.36557118218176;-0.702352711368317;0.135071090047393;-0.952164009111617;0.148063781321185;0.935726125634837;0.351383787497573;0.0195439288900841;0.0237505059276068
2017/12/05 16:23:33.639;-0.508717861684299;9.57317073170732;2.09129836355183;-1.78269585626719;0.398531108045064;-0.51876889830367;0.132701421800948;-0.954441913439636;0.150341685649203;0.934285425153447;0.355152459622739;0.0199499643111732;0.024072259838746
2017/12/05 16:23:33.649;-0.460424130963336;9.59756097560975;2.13997407194338;-1.39165343015362;-1.75259247418159;-0.232431855668333;0.135071090047393;-0.952164009111617;0.148063781321185;0.932825623757888;0.358938301411645;0.0201509976103108;0.0243636765644884
2017/12/05 16:23:33.659;-0.39993649768141;9.5609756097561;2.18877171936053;-1.61290473935135;-2.7031237665026;-0.489438780904506;0.132701421800948;-0.956719817767654;0.148063781321185;0.93136500288122;0.362689131465869;0.0202522667748995;0.0246103842935684
2017/12/05 16:23:33.669;-0.375910102201652;9.54878048780488;2.22515656162859;-0.999258070156147;-2.51777545896646;-0.869957885502385;0.132701421800948;-0.956719817767654;0.148063781321185;0.929875656542172;0.366468977660868;0.0203717921304929;0.0248342881487438
2017/12/05 16:23:33.679;-0.364077609282857;9.51219512195122;2.26141946487103;-0.64170773103896;1.36695984448816;-0.538647081191312;0.127962085308057;-0.954441913439636;0.148063781321185;0.92835733856805;0.370250425060935;0.0207880354906124;0.0252018302804733
2017/12/05 16:23:33.689;-0.448591638044541;9.57317073170732;2.17623697518582;-0.527267413070342;5.03560926498601;0.221221761610399;0.135071090047393;-0.949886104783599;0.148063781321185;0.926815684812694;0.37401444190163;0.0215226552620063;0.0257421627813823
2017/12/05 16:23:33.699;-0.472256623882131;9.59756097560975;2.10371116870094;0.296855773140935;4.05095517808257;0.350775686448453;0.132701421800948;-0.952164009111617;0.14123006833713;0.925237523974279;0.377829059999908;0.0221809679931447;0.02624367177851
2017/12/05 16:23:33.709;-0.43519303667635;9.62195121951219;2.05588903348866;0.747390429678038;2.64392052526722;0.358325688104276;0.125592417061611;-0.947608200455581;0.152619589977221;0.923634793204062;0.381667575526369;0.022702611051879;0.0267062169941723
2017/12/05 16:23:33.719;-0.447266469356591;9.64634146341463;2.04372010639077;0.0497797219465076;2.41788346342175;0.269142311380075;0.125592417061611;-0.952164009111617;0.143507972665148;0.922045833103698;0.385429648267945;0.0232100440454035;0.0271433554956878
2017/12/05 16:23:33.729;-0.434711157153459;9.52439024390244;2.00770108119955;-0.775959424037835;1.42204043428292;0.00473115567150047;0.139810426540284;-0.954441913439636;0.148063781321185;0.920477254588317;0.38910519049449;0.0236526521150795;0.0275558807466643
2017/12/05 16:23:33.739;-0.4106847616737;9.54878048780488;2.0440859234676;-0.478806915267324;-0.89513676168603;0.25497722760453;0.130331753554502;-0.952164009111617;0.150341685649203;0.918893435218808;0.392792433230399;0.0238822698829659;0.0279033384016663
2017/12/05 16:23:33.749;-0.374825873275147;9.63414634146341;2.11673366897809;-0.345369750782819;-1.78626293843477;0.108895961480477;0.130331753554502;-0.954441913439636;0.152619589977221;0.917298616526274;0.396471498841683;0.0240274741754183;0.0282184196928571
2017/12/05 16:23:33.759;-0.411889460480928;9.60975609756098;2.16455580419037;-1.25921514062183;-0.84516236459259;-0.203884569485345;0.137440758293839;-0.956719817767654;0.14123006833713;0.915727290902336;0.400049658420602;0.0242811647704741;0.0285346198786265
2017/12/05 16:23:33.769;-0.38786306500117;9.47560975609756;2.20094064645842;-1.3712682124438;-0.89946429593049;-0.825128652034182;0.135071090047393;-0.952164009111617;0.145785876993166;0.914153877503055;0.403596939042858;0.0245428282212301;0.0288070932978165
2017/12/05 16:23:33.779;-0.436638675245023;9.62195121951219;2.20045289035598;-0.425194443558397;0.967680465287824;0.0549489326396596;0.135071090047393;-0.952164009111617;0.145785876993166;0.912532392256523;0.40719733049569;0.0249463679562991;0.0292001000950448
2017/12/05 16:23:33.789;-0.436036325841409;9.60975609756098;2.1402179499946;-0.789083234042818;2.73285796954281;0.541737085053293;0.132701421800948;-0.952164009111617;0.148063781321185;0.91090917681054;0.410748449799381;0.025469333513948;0.0296899922550393
2017/12/05 16:23:33.799;-0.374825873275147;9.5609756097561;2.11673366897809;0.00177831330879776;-0.420608406457038;-0.299219868668407;0.135071090047393;-0.956719817767654;0.14123006833713;0.909258885291854;0.414348878011193;0.0257444781322485;0.0300084763754776
2017/12/05 16:23:33.809;-0.435674916199241;9.51219512195122;2.10407698577777;-0.186611556025563;1.15140739014553;-0.163431904113847;0.135071090047393;-0.947608200455581;0.145785876993166;0.907603149266191;0.417909301619196;0.0261732396875047;0.030385861621947
2017/12/05 16:23:33.819;-0.570530663654175;9.60975609756098;2.17501758492972;-0.436101135605636;3.29588131010056;0.215197280413396;0.135071090047393;-0.96127562642369;0.145785876993166;0.905944502288136;0.421419286171735;0.0268216135292116;0.0308373971679916
2017/12/05 16:23:33.829;-0.509320211087913;9.52439024390244;2.15153330391322;-0.0729410946517324;0.800074179864577;0.174125130032464;0.135071090047393;-0.96127562642369;0.14123006833713;0.904270805990999;0.424945130971166;0.0272447945673088;0.0312036258353542
2017/12/05 16:23:33.839;-0.447989288640927;9.54878048780488;2.11600203482443;0.338645009883689;0.0213166399693156;0.894054611237877;0.132701421800948;-0.954441913439636;0.150341685649203;0.902572067232165;0.428491717739318;0.0275483670870823;0.0316164316756455
2017/12/05 16:23:33.849;-0.435072566795627;9.60975609756098;2.04384204541638;0.266596795228748;1.33364813663708;1.27966439983236;0.135071090047393;-0.956719817767654;0.143507972665148;0.900863240019199;0.432012241511995;0.0279331122710534;0.0321027600798665
2017/12/05 16:23:33.859;-0.447025529595145;9.60975609756098;2.01962613024622;-0.355983996536867;1.33220230530982;1.42424753255793;0.127962085308057;-0.96127562642369;0.148063781321185;0.899169173806557;0.435466802149338;0.0283102128813268;0.0325882332825476
2017/12/05 16:23:33.869;-0.435072566795627;9.59756097560975;2.04384204541638;-0.670473376067399;-0.100178153343205;0.940659509812208;0.127962085308057;-0.954441913439636;0.145785876993166;0.897485866236798;0.438877868008327;0.0285881171863403;0.0329857004380661
2017/12/05 16:23:33.879;-0.373741644348642;9.59756097560975;2.0083107763276;-0.730477798165784;-0.995055168571324;1.16966209162556;0.132701421800948;-0.952164009111617;0.143507972665148;0.895799290641534;0.442269050361307;0.0287605906078252;0.0333848229967
2017/12/05 16:23:33.889;-0.264237461061417;9.60975609756098;2.03350220370264;-0.398594087485014;-1.84248789435885;1.19281364163365;0.135071090047393;-0.954441913439636;0.152619589977221;0.894094976153974;0.445670400833882;0.028814424818826;0.0337904773442355
2017/12/05 16:23:33.899;-0.277033713025994;9.67073170731707;2.09361520503841;-0.599333620893183;-2.09806870470098;1.03228650640626;0.132701421800948;-0.96127562642369;0.14123006833713;0.892396017123661;0.44903244387506;0.0288575844105944;0.0341533715964269
2017/12/05 16:23:33.909;-0.400177437442856;9.59756097560975;2.21286569550509;-1.66082819301932;-1.62735052012842;-0.653752828307918;0.127962085308057;-0.949886104783599;0.145785876993166;0.890739977019885;0.452278194355819;0.029067034770343;0.0343778378976135
2017/12/05 16:23:33.919;-0.510645379775863;9.5;2.28405017270827;-1.93715131846185;-0.293691456259986;-0.88804045569577;0.135071090047393;-0.958997722095672;0.145785876993166;0.889090939477356;0.455468157972951;0.0294583119692835;0.0346159828391425
2017/12/05 16:23:33.929;-0.535153654778513;9.47560975609756;2.29585328272932;-0.137765801956761;0.7835993409059;0.308749721815393;0.127962085308057;-0.947608200455581;0.152619589977221;0.887358680709337;0.458777865840521;0.0299008203932444;0.0349768855733728
2017/12/05 16:23:33.939;-0.510283970133695;9.54878048780488;2.24790920849143;0.679413206758765;1.21050312175545;1.49129145531748;0.127962085308057;-0.952164009111617;0.145785876993166;0.885582791872238;0.462134534292442;0.030312987322519;0.0354388734818846
2017/12/05 16:23:33.949;-0.448230228402373;9.5609756097561;2.14009601096899;1.01519347246655;1.16283528022505;1.71949769610321;0.132701421800948;-0.949886104783599;0.148063781321185;0.88378358334684;0.465503673448765;0.0306833547634679;0.0359366046362795
2017/12/05 16:23:33.959;-0.338123695711534;9.60975609756098;2.10505249798264;1.03573785618613;0.834175789256072;1.30254210313711;0.125592417061611;-0.956719817767654;0.145785876993166;0.881978628897687;0.468859382977688;0.0309762198892429;0.0364012494691039
2017/12/05 16:23:33.969;-0.338003225830811;9.67073170731707;2.09300550991037;0.292342152476915;0.488055700385032;1.11878699629254;0.130331753554502;-0.947608200455581;0.150341685649203;0.880199104714803;0.47213837455067;0.0312539880296895;0.0368521311208715
2017/12/05 16:23:33.979;-0.301421518147921;9.5609756097561;2.09337132698719;0.389161305374829;-0.639019425907924;0.361851819234121;0.130331753554502;-0.954441913439636;0.148063781321185;0.878417654934205;0.47540372361421;0.031458767208795;0.0372030783583617
2017/12/05 16:23:33.989;-0.301541988028643;9.54878048780488;2.10541831505947;0.0227778248256873;1.19283764104955;0.232120917737701;0.137440758293839;-0.947608200455581;0.145785876993166;0.876643518987716;0.47861026429752;0.0318170661073899;0.0376301718068029
2017/12/05 16:23:33.999;-0.423360543757555;9.60975609756098;2.0921519367311;-0.0680747571076519;3.1585215594956;0.335438604146662;0.137440758293839;-0.954441913439636;0.145785876993166;0.874863525529949;0.481780973682334;0.0323862648614719;0.0381055762760978
2017/12/05 16:23:34.009;-0.435554446318518;9.65853658536585;2.09202999770549;0.643339270295961;0.786839009440942;-0.0152171316887254;0.132701421800948;-0.954441913439636;0.150341685649203;0.873056525196447;0.484993557771641;0.0327927286609777;0.0384472323955626
2017/12/05 16:23:34.019;-0.410805231554423;9.54878048780488;2.05613291153988;-0.234501677282441;0.518463939211095;-0.409177582229015;0.130331753554502;-0.954441913439636;0.145785876993166;0.87128532704266;0.488118622630547;0.0331784096147487;0.038746383790718
2017/12/05 16:23:34.028;-0.484330056562372;9.57317073170732;2.09154224160305;-0.626831802236524;0.252345787039857;0.484029465454572;0.135071090047393;-0.952164009111617;0.14123006833713;0.869528408795347;0.491189492529476;0.0335511650409558;0.0390838592114878
2017/12/05 16:23:34.038;-0.460665070724782;9.57317073170732;2.16406804808793;-0.848069289697504;-1.69169817177622;-0.270424879866523;0.127962085308057;-0.958997722095672;0.143507972665148;0.867788711427895;0.494224715807281;0.0337883905804893;0.0392813857381186
2017/12/05 16:23:34.048;-0.460906010486227;9.54878048780488;2.18816202423249;-0.332957333893878;-1.47167514846732;0.420162350514478;0.135071090047393;-0.952164009111617;0.152619589977221;0.86602112469997;0.497277205670695;0.0340263976539894;0.0395600373664589
2017/12/05 16:23:34.058;-0.411768990600205;9.52439024390244;2.15250881611809;-0.0202111775138641;-0.160588576283984;0.930264587551216;0.127962085308057;-0.956719817767654;0.145785876993166;0.864231788001979;0.500332443358329;0.0343058392224053;0.0399245804640843
2017/12/05 16:23:34.068;-0.399695557919965;9.58536585365854;2.16467774321598;0.323008448101791;0.743804320023733;1.26253320186269;0.137440758293839;-0.956719817767654;0.145785876993166;0.862421885540046;0.50338725441873;0.0346425861198129;0.0403689813750115
2017/12/05 16:23:34.078;-0.436036325841409;9.57317073170732;2.1402179499946;-0.0685961340311115;1.41171483817311;1.03729076665297;0.135071090047393;-0.958997722095672;0.14123006833713;0.860626617827774;0.506387239274677;0.0350572380398809;0.0408016990714021
2017/12/05 16:23:34.088;-0.460303661082613;9.59756097560975;2.1279270838711;-0.137845892003013;0.956492015614425;1.17379389997954;0.130331753554502;-0.943052391799544;0.150341685649203;0.858830517636929;0.509366830686522;0.0354442212728871;0.0412223355744275
2017/12/05 16:23:34.098;-0.411287111077314;9.65853658536585;2.10432086382899;-0.296041930740929;-0.497965248888593;1.38502715814824;0.127962085308057;-0.956719817767654;0.145785876993166;0.857043140706743;0.512322157150163;0.0356771713097633;0.0415956933811705
2017/12/05 16:23:34.108;-0.301421518147921;9.60975609756098;2.09337132698719;-0.387919223992348;-2.38680416411918;1.16150567061746;0.127962085308057;-0.956719817767654;0.145785876993166;0.855264672976196;0.515257907028395;0.0357164750858627;0.041904198012606
2017/12/05 16:23:34.118;-0.265321689987922;9.60975609756098;2.14192509635313;-0.620538022788869;-2.21362997684493;0.485539288124027;0.135071090047393;-0.952164009111617;0.143507972665148;0.853501059758194;0.518145649340204;0.0357874900808043;0.0421933953975566
2017/12/05 16:23:34.128;-0.265924039391535;9.52439024390244;2.20216003671452;-0.537666809354964;-1.23981721287351;-0.0727416475963637;0.132701421800948;-0.956719817767654;0.154897494305239;0.851733878104964;0.521009317198225;0.035958926401029;0.042492915797838
2017/12/05 16:23:34.138;-0.315301999039003;9.53658536585366;2.26190722097346;-0.0269650492153538;-0.600133710917034;-0.501001071685406;0.125592417061611;-0.952164009111617;0.145785876993166;0.849949050654381;0.523876564542867;0.0362239820307755;0.0427525384078379
2017/12/05 16:23:34.148;-0.375789632320929;9.53658536585366;2.21310957355631;0.589592416493188;2.89104863401929;-0.14873632174736;0.127962085308057;-0.949886104783599;0.150341685649203;0.848120856000202;0.526758459876512;0.0367756807293383;0.0431750839362653
2017/12/05 16:23:34.158;-0.460665070724782;9.62195121951219;2.16406804808793;1.63249597248727;3.85692345572882;0.086776968721824;0.127962085308057;-0.954441913439636;0.14123006833713;0.846241391050292;0.529690582356091;0.037439814134566;0.043607973515176
2017/12/05 16:23:34.168;-0.459339902036831;9.54878048780488;2.03155117929288;1.60830101200038;4.16136748293623;-0.10043967032478;0.135071090047393;-0.956719817767654;0.145785876993166;0.844355273041798;0.532606143760691;0.038140359679804;0.0440474911700168
2017/12/05 16:23:34.178;-0.53153955835683;9.57317073170732;1.93444364056101;1.31151824855602;4.07718087000398;0.753925102476161;0.125592417061611;-0.956719817767654;0.150341685649203;0.842473322339274;0.535491122703413;0.0388246033522446;0.0445040315814738
2017/12/05 16:23:34.188;-0.519466125676589;9.64634146341463;1.9466125676589;0.69263270547729;0.916013458613477;0.683071687820267;0.149289099526066;-0.89749430523918;0.170842824601367;0.840623629930459;0.538322305111144;0.0393088834993816;0.044897887482539
2017/12/05 16:23:34.198;-0.495801139838999;9.62195121951219;2.01913837414378;-1.08913797164812;-1.73383594258954;0.91763359329562;0.151658767772512;-0.904328018223235;0.161731207289294;0.838875353137053;0.540998846956042;0.0395708773676412;0.0451944150949277
2017/12/05 16:23:34.208;-0.472858973285745;9.53658536585366;2.16394610906232;-1.58775909132571;-3.95581584498672;0.725306132560493;0.163507109004739;-0.89749430523918;0.164009111617312;0.837172205387453;0.543603413873957;0.039690483522617;0.0454168742762927
2017/12/05 16:23:34.218;-0.388585884285506;9.5609756097561;2.27322257489208;-1.93351520018472;-5.36593784114977;1.04159046898632;0.163507109004739;-0.89749430523918;0.164009111617312;0.835498446620101;0.546157434004865;0.0396404366245836;0.0456403194646099
2017/12/05 16:23:34.228;-0.352847465767675;9.60975609756098;2.35791730847485;-1.27979101127766;-4.41605301144028;1.36324365537446;0.154028436018957;-0.899772209567198;0.168564920273349;0.833795085418483;0.548731277729591;0.039616084454802;0.0459380694599332
2017/12/05 16:23:34.238;-0.218714537597078;9.48780487804878;2.35925863775656;-0.456868402871911;-3.32358388992258;1.04220139770474;0.149289099526066;-0.906605922551253;0.164009111617312;0.832056694571298;0.551334672402355;0.0395937034530987;0.0463041539491027
2017/12/05 16:23:34.248;-0.19384485295226;9.5;2.31131456351867;0.887312442252247;-1.21755352423388;0.726608096610727;0.156398104265403;-0.89749430523918;0.168564920273349;0.83024543077941;0.554008885949432;0.0397434571564818;0.0467668319670287
2017/12/05 16:23:34.258;-0.314579179754666;9.57317073170732;2.1896252925398;2.0666295030726;3.66875587427437;0.749223465149438;0.154028436018957;-0.911161731207289;0.164009111617312;0.82835666407041;0.556735894311795;0.0403283251580153;0.0473709538107179
2017/12/05 16:23:34.268;-0.422637724473218;9.58536585365854;2.01987000829744;2.54064164153026;7.54242727020121;0.674065718153863;0.156398104265403;-0.89749430523918;0.164009111617312;0.826421737344969;0.559473058318235;0.0412746036246409;0.0480979849410937
2017/12/05 16:23:34.278;-0.48252300835153;9.67073170731707;1.91083742051889;3.44516406849441;6.67966243481851;0.717568923595241;0.149289099526066;-0.906605922551253;0.168564920273349;0.824437287172666;0.562270714200567;0.0421819389813377;0.0487389730660628
2017/12/05 16:23:34.288;-0.469485816625507;9.64634146341463;1.82663044303856;2.45935591501592;5.48556380425843;0.611546956910436;0.158767772511848;-0.895216400911162;0.168564920273349;0.822502490495036;0.564983126631758;0.043006687808001;0.0493370505264774
2017/12/05 16:23:34.298;-0.506428933950566;9.59756097560975;1.86240559017857;1.33392817353039;2.06311548482945;0.950176176661843;0.156398104265403;-0.911161731207289;0.161731207289294;0.820648222524569;0.567591784634788;0.0435855488542461;0.0497630466655327
2017/12/05 16:23:34.308;-0.495801139838999;9.53658536585366;2.01913837414378;-1.47842862611598;-3.95537435353393;0.681156987281261;0.132701421800948;-0.956719817767654;0.145785876993166;0.81898885229765;0.569969034994449;0.0436993207839667;0.0498289907854307
2017/12/05 16:23:34.318;-0.509922560491526;9.59756097560975;2.2117682442746;-1.91910718765023;-5.57722364183593;0.990140280416164;0.123222748815166;-0.956719817767654;0.145785876993166;0.817382593502912;0.57227111240484;0.0436874730776481;0.0498284501210905
2017/12/05 16:23:34.328;-0.438204783694419;9.53658536585366;2.35706373529559;-1.07261059640165;-5.64790856332606;2.00719521309034;0.123222748815166;-0.956719817767654;0.145785876993166;0.815755976392055;0.574585911753648;0.0435808135420016;0.049939259965405
2017/12/05 16:23:34.338;-0.30443326516599;9.51219512195122;2.39454602879412;-0.0293352285492066;-3.37955529303244;2.10076379643598;0.12085308056872;-0.954441913439636;0.148063781321185;0.814077753471169;0.576938830870741;0.0435315339347659;0.050239449540403
2017/12/05 16:23:34.348;-0.255175775399245;9.51219512195122;2.34684583260745;1.0621350796279;0.688706609353925;2.23372635658934;0.132701421800948;-0.952164009111617;0.148063781321185;0.81233247285523;0.579329578369353;0.0437492073115673;0.0507858250982025
2017/12/05 16:23:34.358;-0.290552784274908;9.53658536585366;2.22601013480785;1.92583629461917;4.24744840307648;1.88148344424349;0.127962085308057;-0.956719817767654;0.145785876993166;0.810526040620742;0.581758520237156;0.0442634920580249;0.0514325274312488
2017/12/05 16:23:34.368;-0.337762286069365;9.53658536585366;2.06891153376581;2.5204205542867;6.4709267827723;1.92396317511444;0.123222748815166;-0.956719817767654;0.143507972665148;0.808670832239057;0.584218500006164;0.0449654206605761;0.052137704985518
2017/12/05 16:23:34.378;-0.458737552633217;9.62195121951219;1.9713162389315;2.37585908744982;6.24257232648734;2.06651924234056;0.125592417061611;-0.963553530751708;0.138952164009112;0.806824668761359;0.586650356648969;0.045734425517483;0.0527605462855116
2017/12/05 16:23:34.388;-0.494355501270325;9.62195121951219;1.87457451727645;1.74185484401828;3.21707050770996;2.04484030313445;0.130331753554502;-0.954441913439636;0.148063781321185;0.805013850214782;0.589045328556524;0.0463206894454057;0.0532230739192181
2017/12/05 16:23:34.398;-0.482282068590085;9.60975609756098;1.88674344437434;0.905751014578269;0.657870903128271;2.29157837098529;0.123222748815166;-0.952164009111617;0.148063781321185;0.803265827060172;0.5913658016631;0.0466962110919113;0.0535720409388782
2017/12/05 16:23:34.408;-0.422035375069604;9.5609756097561;1.95963506793605;0.200887775605474;-2.67312108982591;2.56173076776455;0.130331753554502;-0.956719817767654;0.150341685649203;0.801587986636795;0.593608187161764;0.0467906328082051;0.0538205954584426
2017/12/05 16:23:34.418;-0.35043806815322;9.60975609756098;2.11697754702931;-0.65587069166884;-5.25728849364033;2.27953015071942;0.125592417061611;-0.956719817767654;0.143507972665148;0.800005978436318;0.595736356011558;0.0466582023013422;0.053959621479654
2017/12/05 16:23:34.428;-0.33968980416093;9.5609756097561;2.26166334292225;-1.20025945090964;-5.24331647185475;2.39518727624701;0.125592417061611;-0.954441913439636;0.148063781321185;0.798489690457716;0.597761977245244;0.0465230865958884;0.054133494309803
2017/12/05 16:23:34.438;-0.365764187612975;9.48780487804878;2.43007729788291;-0.258970171774882;-4.7406973605941;2.05763318497687;0.125592417061611;-0.954441913439636;0.148063781321185;0.796980544592488;0.599760009713251;0.0464872163452482;0.0543036003069139
2017/12/05 16:23:34.448;-0.415503556902611;9.47560975609756;2.52596544635868;1.34375383404645;-1.9974786564223;3.07615611121681;0.12085308056872;-0.949886104783599;0.145785876993166;0.795416836083689;0.6017889717896;0.0466527381252559;0.0546407570632638
2017/12/05 16:23:34.458;-0.438927602978756;9.41463414634146;2.42934566372925;3.20743907771109;1.79093268912316;3.96270688193504;0.123222748815166;-0.96127562642369;0.143507972665148;0.793741229391877;0.603914894530105;0.0470722988193399;0.0551893070442653
2017/12/05 16:23:34.468;-0.52344163174044;9.48780487804878;2.34416317404404;5.46057877834147;4.02956347439219;5.51566466365494;0.125592417061611;-0.952164009111617;0.143507972665148;0.791927329710363;0.606182140294783;0.0476594553967739;0.0558828556601508
2017/12/05 16:23:34.478;-0.190230756530577;10.390243902439;1.94990492135036;6.11306057708101;5.46824404102539;5.36924188838338;0.12085308056872;-0.96127562642369;0.152619589977221;0.789938087875711;0.608658414580787;0.0480053030057112;0.0568176254924363
2017/12/05 16:23:34.488;-0.185652901063111;9.3780487804878;1.49211937460383;4.07789664663211;6.2709272974999;5.2824593574233;0.116113744075829;-0.952164009111617;0.152619589977221;0.788015087215786;0.611026560569315;0.0484154728923605;0.057746918391725
2017/12/05 16:23:34.498;-0.225969175048408;10.0121951219512;1.86521018776759;7.3174011049113;-4.67343895516881;5.9218077710409;0.12085308056872;-0.958997722095672;0.145785876993166;0.786040805032505;0.613553352096537;0.0480921322554107;0.0581316073240836
2017/12/05 16:23:34.508;-0.0291801557428741;9.34146341463415;1.69850337916546;0.838186363429886;-0.752580517984229;2.64080520235635;0.127962085308057;-0.954441913439636;0.152619589977221;0.784408808733091;0.615592874322268;0.0480357502799513;0.0586583375201136
2017/12/05 16:23:34.517;-0.289107145706235;9.84146341463415;2.08144627794053;2.42828291201305;-8.06500464111237;4.6850329463357;0.118483412322275;-0.965831435079727;0.150341685649203;0.78281345665886;0.617643687556033;0.0476091831276847;0.0587599606697137
2017/12/05 16:23:34.527;-0.082051741931302;9.47560975609756;2.10761321752045;0.498210770710865;-8.66322511047076;0.966989110615643;0.118483412322275;-0.956719817767654;0.150341685649203;0.781385387536172;0.619485568854194;0.0471482906292046;0.0587498495069231
2017/12/05 16:23:34.537;-0.364439018925025;9.62195121951219;2.29756042908786;1.74710019986478;-2.00490852556171;3.81914302515773;0.113744075829384;-0.956719817767654;0.152619589977221;0.779931968979715;0.621273287154922;0.0472979258489399;0.05906380144836
2017/12/05 16:23:34.547;-0.0457109740098573;9.52439024390244;2.13207301074183;2.75139404145042;-3.66945244932239;2.34615264782184;0.113744075829384;-0.956719817767654;0.152619589977221;0.778396636312992;0.623177860143708;0.0470818915102252;0.0594249669343487
2017/12/05 16:23:34.557;0.0171860568865241;9.68292682926829;1.93993089671344;3.75779656217633;-0.455669522531202;3.20689173874806;0.118483412322275;-0.956719817767654;0.148063781321185;0.776745387419565;0.62518456999798;0.0469993279929945;0.0600159955934902
2017/12/05 16:23:34.567;0.0311870076583291;9.65853658536585;1.7593480146549;2.20262268065816;3.58407357550703;1.65315682146054;0.118483412322275;-0.954441913439636;0.159453302961276;0.775122119561153;0.627108532916014;0.0472711065738727;0.0607126856120814
2017/12/05 16:23:34.577;-0.114778413431064;9.64634146341463;1.72174378213075;2.04694680201523;2.13123158839365;0.190003036580093;0.116113744075829;-0.954441913439636;0.150341685649203;0.773551197359034;0.628978221402121;0.0476645374112806;0.0610985592268577
2017/12/05 16:23:34.587;-0.27426290576937;9.63414634146341;1.81653447937604;-0.113318160189811;2.36901568967859;-0.895517530643023;0.12085308056872;-0.952164009111617;0.154897494305239;0.772159914420106;0.6306150865524;0.0482920204156409;0.0613315574514391
2017/12/05 16:23:34.597;-0.31168790261732;9.60975609756098;1.90049757880515;-1.12792779251945;-0.08113073036499;-0.964082788009322;0.113744075829384;-0.954441913439636;0.154897494305239;0.770889886269888;0.632122389838093;0.0487863050833798;0.0614000321538024
2017/12/05 16:23:34.607;-0.373862114229365;9.57317073170732;2.02035776439987;-1.66854688278135;-2.66216279009309;-1.55981781368613;0.125592417061611;-0.952164009111617;0.150341685649203;0.769758097015128;0.633478774640231;0.0492353490708979;0.0612616891852301
2017/12/05 16:23:34.617;-0.411889460480928;9.57317073170732;2.16455580419037;-1.95748762427665;-2.68223459393288;-1.06549673379224;0.113744075829384;-0.954441913439636;0.150341685649203;0.768730893046351;0.634702887369479;0.0496932531165729;0.0611198775824892
2017/12/05 16:23:34.627;-0.351281357318279;9.5609756097561;2.20130646353525;-1.76416297564548;-3.13050319220015;-0.111556725522459;0.118483412322275;-0.954441913439636;0.154897494305239;0.767721918328306;0.635900400063029;0.050004299511271;0.0611007966263333
2017/12/05 16:23:34.637;-0.265924039391535;9.58536585365854;2.20216003671452;-0.55294746673082;-2.94109948416484;0.615243424048054;0.111374407582938;-0.958997722095672;0.145785876993166;0.766679892868819;0.63713390887147;0.0501736056005696;0.0611958604633958
2017/12/05 16:23:34.647;-0.167288589977323;9.54878048780488;2.0947126562689;-0.109178726701412;-1.61143339179666;0.780252946685829;0.118483412322275;-0.956719817767654;0.150341685649203;0.765563163183322;0.63843763420985;0.0503132610740837;0.0614736216711477
2017/12/05 16:23:34.657;-0.0931614155657605;9.65853658536585;1.99906838584434;0.637070362491862;-0.737027283849322;1.08548178886566;0.118483412322275;-0.956719817767654;0.150341685649203;0.764360044890326;0.639832179633226;0.050411138884846;0.0618645355384504
2017/12/05 16:23:34.667;-0.153889988609132;9.62195121951219;1.97436471457174;0.536101538407468;-0.093361649269055;0.259009102397178;0.12085308056872;-0.949886104783599;0.157175398633257;0.763170208760084;0.64119845926184;0.0506823912420915;0.0621857179689728
2017/12/05 16:23:34.677;-0.301060108505752;9.57317073170732;2.05723036277036;-0.507020748885511;0.416242161939499;-0.7770149836625;0.109004739336493;-0.958997722095672;0.152619589977221;0.762143179435864;0.642365578761688;0.0512080453777008;0.0623054841097482
2017/12/05 16:23:34.687;-0.289709495109848;9.60975609756098;2.14168121830191;-0.41236554289151;-0.599190339985447;-0.595338164844046;0.116113744075829;-0.954441913439636;0.148063781321185;0.76120751234619;0.64342747855638;0.0516563314939492;0.0624165555192846
2017/12/05 16:23:34.697;-0.216546079744068;9.59756097560975;2.14241285245557;0.297059611070265;-0.314769534962332;-0.293091889545951;0.116113744075829;-0.954441913439636;0.145785876993166;0.760262159476113;0.644493816370421;0.0520104031753982;0.062642537389057
2017/12/05 16:23:34.707;-0.2161846701019;9.5609756097561;2.10627188823874;0.246456087633123;1.61036401866343;-0.673315633362378;0.113744075829384;-0.954441913439636;0.157175398633257;0.759284803412393;0.645573729615727;0.0525086257784338;0.0629602347192605
2017/12/05 16:23:34.717;-0.289227615586957;9.59756097560975;2.0934932660128;0.668323578868626;2.77125477325917;-0.272224678412845;0.116113744075829;-0.956719817767654;0.152619589977221;0.758316763475365;0.646626099985621;0.0531594975136818;0.0632806516537687
2017/12/05 16:23:34.727;-0.301060108505752;9.59756097560975;2.05723036277036;0.350862426940166;1.72878230750471;-0.412270084812894;0.12085308056872;-0.956719817767654;0.152619589977221;0.757382188220144;0.647646416787755;0.0537641838300466;0.06352757138391
2017/12/05 16:23:34.737;-0.288745736064066;9.58536585365854;2.0453053137237;0.769552927430554;1.22451916831864;0.0896867989987778;0.111374407582938;-0.96127562642369;0.150341685649203;0.756448867891213;0.648669941176676;0.0542722997267841;0.0637725267048239
2017/12/05 16:23:34.747;-0.288384326421898;9.59756097560975;2.00916434950686;0.772299265509228;1.1957788528536;-0.0620002626674305;0.116113744075829;-0.949886104783599;0.148063781321185;0.755525489045695;0.649678155748863;0.0547905494674393;0.0640119132199312
2017/12/05 16:23:34.757;-0.32460462446262;9.60975609756098;1.9726575682132;0.680703059859156;0.55650587413146;0.325206837988624;0.111374407582938;-0.954441913439636;0.152619589977221;0.754595831827449;0.650698516069384;0.0552779248294689;0.0641944140894696
2017/12/05 16:23:34.767;-0.348631019942378;9.57317073170732;1.93627272594515;0.0523077444223221;0.642487203410646;0.804229734578372;0.111374407582938;-0.954441913439636;0.152619589977221;0.753710593057666;0.651663052968655;0.0557689311185352;0.0643850419750456
2017/12/05 16:23:34.777;-0.410202882150809;9.60975609756098;1.99589797117849;-0.120320057499876;-1.53400231399569;0.60144168701222;0.116113744075829;-0.96127562642369;0.150341685649203;0.752940422788883;0.652514614400904;0.0562205003451201;0.064378979991012
2017/12/05 16:23:34.787;-0.337280406546474;9.62195121951219;2.0207235814767;-0.341594373682966;-3.08703957532732;1.59351880353345;0.127962085308057;-0.949886104783599;0.152619589977221;0.752220745504839;0.653316478736593;0.0564301312890181;0.0644761112821456
2017/12/05 16:23:34.797;-0.264116991180694;9.57317073170732;2.02145521563036;-1.2055263839627;-3.00997566525483;1.45142431670808;0.116113744075829;-0.96127562642369;0.152619589977221;0.751575718811699;0.654034172948139;0.0565257679239418;0.0646380466082568
2017/12/05 16:23:34.807;-0.143382664378287;9.67073170731707;2.14314448660923;-0.306074460440353;-5.41840982926667;1.75021136842226;0.118483412322275;-0.952164009111617;0.148063781321185;0.751016675565483;0.654675086076701;0.0562806341979071;0.0648611972393093
2017/12/05 16:23:34.817;0.00270322659182803;9.57317073170732;2.1687017310611;-0.803937101398351;-4.17702437224809;0.153269297426358;0.12085308056872;-0.96127562642369;0.150341685649203;0.750546952376585;0.655198900994204;0.055990646570794;0.0652588684455399
2017/12/05 16:23:34.827;-0.132152520863106;9.60975609756098;2.23964233021305;-0.0966093172459494;-0.423313097967024;-0.0287507176697746;0.12085308056872;-0.956719817767654;0.152619589977221;0.750112184286746;0.655636807637693;0.0561876544736552;0.0656889255504297
2017/12/05 16:23:34.837;-0.216787019505513;9.52439024390244;2.16650682860012;0.643779832692093;3.39164512983271;-0.284028868294012;0.116113744075829;-0.952164009111617;0.150341685649203;0.749591834753825;0.656132141879289;0.0567872350345044;0.0661657282921215
2017/12/05 16:23:34.847;-0.301180578386475;9.68292682926829;2.06927735084264;1.51169490146377;3.53465534062958;0.543543092866049;0.116113744075829;-0.956719817767654;0.157175398633257;0.748880369002975;0.656843757789602;0.0574643829910842;0.0665756371524646
2017/12/05 16:23:34.857;-0.226571524452021;9.54878048780488;1.92544512812897;1.18433406523993;1.75000613117353;-1.02179314761031;0.113744075829384;-0.96127562642369;0.148063781321185;0.748156705913861;0.657595489765235;0.0579912398987279;0.0668336092961386
2017/12/05 16:23:34.867;-0.384730848102377;9.67073170731707;1.88771895657922;0.869803220499155;3.2981636720057;-0.0130389101012727;0.12085308056872;-0.956719817767654;0.150341685649203;0.747421313728242;0.658337725938048;0.0587830853855344;0.0670624131986429
2017/12/05 16:23:34.877;-0.482282068590085;9.58536585365854;1.88674344437434;0.00956006467099255;1.6382228996338;-0.433485122230017;0.12085308056872;-0.956719817767654;0.150341685649203;0.746802450540336;0.658964897195236;0.05962311588368;0.0670555604237404
2017/12/05 16:23:34.887;-0.470690515432735;9.59756097560975;1.94710032376134;-0.456424652949798;-1.93809562281005;0.163571358160767;0.118483412322275;-0.947608200455581;0.150341685649203;0.746299515575449;0.659498533989939;0.0601697281589946;0.0669202550073216
2017/12/05 16:23:34.897;-0.422155844950327;9.5609756097561;1.97168205600833;-0.96536543701173;-4.33850367349228;1.1726063809976;0.118483412322275;-0.958997722095672;0.150341685649203;0.745890703552337;0.659951548511925;0.0604213499589416;0.0667852711310706
2017/12/05 16:23:34.907;-0.276069953980212;9.62195121951219;1.9972393004602;-0.812565264723858;-6.73339801670581;1.63027065696473;0.123222748815166;-0.956719817767654;0.150341685649203;0.745503532730528;0.660405406378198;0.060267902572717;0.066760481066537
2017/12/05 16:23:34.917;-0.166083891170095;9.59756097560975;1.97424277554613;-0.944000439327498;-7.79086232822953;1.47655052340654;0.118483412322275;-0.958997722095672;0.143507972665148;0.74514810981353;0.660839103647565;0.0598793546434799;0.0667864987784705
2017/12/05 16:23:34.927;-0.142659845093951;9.58536585365854;2.07086255817557;-1.07700800359503;-8.0736818799162;1.01417891446413;0.113744075829384;-0.954441913439636;0.145785876993166;0.74491767307043;0.661133055704691;0.0594623947455128;0.0668204056635627
2017/12/05 16:23:34.937;-0.131309231698047;9.60975609756098;2.15531341370712;-1.348731332877;-7.30976076378102;0.265032505181845;0.116113744075829;-0.956719817767654;0.152619589977221;0.744782259191757;0.661307160411544;0.0591310097786957;0.0669010438199248
2017/12/05 16:23:34.947;-0.131068291936601;9.5609756097561;2.13121943756256;-1.01637195045846;-5.07837085316388;1.02921844800655;0.113744075829384;-0.949886104783599;0.148063781321185;0.74462161033497;0.661484043835105;0.0589110906362739;0.067134198243209
2017/12/05 16:23:34.957;-0.167770469500214;9.68292682926829;2.14290060855801;-0.698655943806712;-4.20135818451158;1.07379121969094;0.113744075829384;-0.963553530751708;0.150341685649203;0.744428429574893;0.661687934625919;0.058815771220007;0.0673505416974446
2017/12/05 16:23:34.967;-0.374343993752256;9.42682926829268;2.06854571668898;-0.722101610822622;-2.02956743339409;0.23359659205604;0.123222748815166;-0.956719817767654;0.145785876993166;0.744282416852747;0.661812910241771;0.0592951643492599;0.0673159660552021
2017/12/05 16:23:34.977;-0.422396784711773;9.75609756097561;1.99577603215288;-0.612305364421454;1.15470359225806;2.53266649280206;0.111374407582938;-0.954441913439636;0.145785876993166;0.743913721359472;0.662155424637166;0.0598486644246227;0.0675330005498436
2017/12/05 16:23:34.987;-0.0449881547255207;9.41463414634146;2.05979108230817;-0.169872171683902;-6.36837362793325;1.43645507774204;0.111374407582938;-0.954441913439636;0.145785876993166;0.743708694015302;0.662398771500417;0.0593738607928777;0.067823230646591
2017/12/05 16:23:34.996;-0.169818457472501;9.73170731707317;2.34769940578672;-0.466710588410361;-8.06329385480748;1.48823570767668;0.118483412322275;-0.956719817767654;0.150341685649203;0.743864136090521;0.662245871942861;0.0590173013994318;0.0679228258280812
2017/12/05 16:23:35.006;-0.155697036819974;9.36585365853659;2.1550695356559;-0.286955055579443;-1.45685730563832;0.451237371699102;0.116113744075829;-0.96127562642369;0.150341685649203;0.743802342757912;0.662266282339828;0.0591443051283278;0.0682890719992025
2017/12/05 16:23:35.016;-0.374825873275147;9.75609756097561;2.11673366897809;0.999007165806624;2.81064829630786;3.35271953714106;0.113744075829384;-0.954441913439636;0.145785876993166;0.743501473359171;0.662506505752881;0.0597417540586338;0.06871398525662
2017/12/05 16:23:35.026;-0.0553750090756425;9.51219512195122;1.8789643221984;0.194772257145875;1.11799755148941;1.66469265741302;0.118483412322275;-0.949886104783599;0.145785876993166;0.743014460288153;0.662979534816162;0.0598177521601159;0.069350448766828
2017/12/05 16:23:35.036;-0.201581369926481;9.70731707317073;1.86545406581881;1.98947112687374;-1.22414841120632;1.38609679385486;0.109004739336493;-0.958997722095672;0.148063781321185;0.74240428097605;0.663622107575263;0.0599872129428376;0.0695925010985427
2017/12/05 16:23:35.046;-0.286818217972502;9.57317073170732;1.85255350456726;-1.28774335588574;2.95720493771234;0.799929829371125;0.118483412322275;-0.952164009111617;0.150341685649203;0.742014469580191;0.663964528863894;0.0605939670779512;0.0699571475828733
2017/12/05 16:23:35.056;-0.201701839807203;9.62195121951219;1.87750105389108;-0.663125068384941;-2.75397658962375;1.57012492304092;0.118483412322275;-0.956719817767654;0.145785876993166;0.741666744253165;0.664326490632189;0.0606521872380276;0.0701574407776743
2017/12/05 16:23:35.066;-0.227053403974912;9.64634146341463;1.97363308041808;-2.5105102165972;-4.48702604334692;0.896250325614929;0.12085308056872;-0.952164009111617;0.14123006833713;0.74160113494778;0.664392296544414;0.0606765804297447;0.0702067341781146
2017/12/05 16:23:35.076;-0.0576639368093752;9.54878048780488;2.10785709557166;-2.65584369428874;-5.66412414838881;0.603035111195582;0.109004739336493;-0.958997722095672;0.143507972665148;0.741723367425153;0.664260995704508;0.0603281202528977;0.0704577441300743
2017/12/05 16:23:35.086;-0.181410010629851;9.60975609756098;2.28734252639972;-2.9997261976381;-2.2404732924872;0.144152244181873;0.116113744075829;-0.956719817767654;0.148063781321185;0.74210724948262;0.66378782344966;0.0604697356869202;0.070752856982998
2017/12/05 16:23:35.096;-0.290793724036353;9.46341463414634;2.25010411095241;-1.68813807755056;-1.78412486144007;1.40794756609512;0.116113744075829;-0.956719817767654;0.148063781321185;0.742389366832553;0.663421284041636;0.0607911715293312;0.070955347639199
2017/12/05 16:23:35.106;-0.302987626597317;9.64634146341463;2.2499821719268;-0.794564154995638;-1.90701632350748;1.5942193401583;0.118483412322275;-0.952164009111617;0.150341685649203;0.742509803113868;0.663236292111588;0.0611052919297884;0.0711544545622577
2017/12/05 16:23:35.116;-0.168493288784551;9.63414634146341;2.21518253699167;0.621397330133827;-5.89342391059346;0.84012177038993;0.116113744075829;-0.956719817767654;0.145785876993166;0.74252661882903;0.663219248128086;0.0609581912287414;0.0712639331279504
2017/12/05 16:23:35.126;0.0142947797491776;9.52439024390244;2.22905861044809;0.11066182188708;-1.60225613777716;-0.137472455264271;0.116113744075829;-0.956719817767654;0.14123006833713;0.742622802194776;0.66306138782044;0.0608057579181569;0.0718583985767125
2017/12/05 16:23:35.136;-0.205195466348164;9.62195121951219;2.22686370798712;0.965926578948315;4.98571441776653;0.672128571304829;0.113744075829384;-0.954441913439636;0.143507972665148;0.742594006766109;0.662963643678054;0.0614588656253396;0.0724993524951765
2017/12/05 16:23:35.146;-0.252043558500453;9.58536585365854;2.03362414272825;1.68994512514903;4.2761686775544;0.522315300535733;0.116113744075829;-0.954441913439636;0.152619589977221;0.742211046161707;0.663273986241926;0.0621548885281553;0.0729873411102388
2017/12/05 16:23:35.156;-0.457773793587435;9.62195121951219;1.87494033435328;0.876617381970871;2.75891111857999;2.47500009358921;0.106635071090047;-0.965831435079727;0.145785876993166;0.741747569957783;0.663700441124783;0.0629155539282681;0.0731703490930088
2017/12/05 16:23:35.166;-0.285974928807442;9.68292682926829;1.76822458806132;-0.325079043242703;-3.82486631624727;4.27180560354674;0.116113744075829;-0.954441913439636;0.145785876993166;0.741249505737876;0.664241816983473;0.0628725139995521;0.0733418420632105
2017/12/05 16:23:35.176;-0.0926795360428694;9.40243902439024;1.95088043355523;-2.31958026079746;-9.99476517083755;0.989376387839383;0.113744075829384;-0.958997722095672;0.14123006833713;0.741233684595094;0.664320310647171;0.062312640679679;0.0732685778130923
2017/12/05 16:23:35.186;-0.0586276958551574;9.80487804878049;2.20423300014988;-0.114452236680461;-5.23564716230922;4.65397492986303;0.113744075829384;-0.954441913439636;0.150341685649203;0.74121520392307;0.664327446857538;0.0618016820930891;0.0738215206798951
2017/12/05 16:23:35.196;0.162187718930135;9.47560975609756;2.07391103381581;-2.6598692704404;-5.77150020745524;0.750625889245117;0.109004739336493;-0.954441913439636;0.143507972665148;0.741290929926126;0.664245339323932;0.061103117455826;0.0743794019394758
2017/12/05 16:23:35.206;0.0146561893913459;9.70731707317073;2.19291764623126;-2.66501920799167;-0.038383537289816;2.32549442489688;0.109004739336493;-0.954441913439636;0.143507972665148;0.741447654856379;0.663996721024325;0.0609649162191572;0.0751465805430409
2017/12/05 16:23:35.216;0.0138129002262865;9.46341463414634;2.2772465627372;-1.25632604740942;4.21527706776379;-2.46567954491124;0.111374407582938;-0.954441913439636;0.143507972665148;0.741760826603954;0.663522027839673;0.0613901646275108;0.0758988957386971
2017/12/05 16:23:35.226;-0.328459660645748;9.69512195121951;2.35816118652607;0.566449105500159;6.76401569521358;-0.153460595487897;0.109004739336493;-0.954441913439636;0.145785876993166;0.741994324533665;0.663103041325107;0.0625108723493449;0.0763620965096398
2017/12/05 16:23:35.236;-0.350799477795388;9.47560975609756;2.15311851124614;0.536207445635735;4.37090598709719;-1.38711913331947;0.113744075829384;-0.952164009111617;0.145785876993166;0.741982783263065;0.66299349144212;0.063561320755234;0.076558070446123
2017/12/05 16:23:35.246;-0.446543650072254;9.46341463414634;1.97143817795711;1.23185489523342;3.59401643142424;2.17173053382446;0.113744075829384;-0.952164009111617;0.148063781321185;0.741650749808489;0.663251442714055;0.0644633958342638;0.0767864548194859
2017/12/05 16:23:35.256;-0.22825810278214;9.86585365853659;2.09410296114085;1.79548979287016;-6.16674324201955;3.96630604764352;0.111374407582938;-0.96127562642369;0.143507972665148;0.741392738535902;0.66354710527381;0.0642411487042899;0.0769098247438934
2017/12/05 16:23:35.266;0.200576474823866;9.25609756097561;1.89357202980848;-0.379680556908073;-7.04189058149692;-0.80337755378786;0.12085308056872;-0.958997722095672;0.14123006833713;0.741177408632944;0.663810472590025;0.0635417343986094;0.0772926477847603
2017/12/05 16:23:35.276;-0.00924973620768984;9.90243902439024;2.14448581589093;1.1634665495054;0.767419596791688;4.95244274140604;0.109004739336493;-0.96127562642369;0.152619589977221;0.74090410635639;0.66402476859462;0.0633792168907637;0.0782002988703575
2017/12/05 16:23:35.286;0.453757151466752;9.54878048780488;2.18526046308093;0.0146976102643128;-5.48751336169768;-1.9294505170699;0.118483412322275;-0.952164009111617;0.145785876993166;0.740944579359219;0.663969049874043;0.0624054006677517;0.0790683065143507
2017/12/05 16:23:35.296;-0.0110567844185314;9.63414634146341;2.32519063697509;-0.453416429159089;2.53496188215032;-0.848684432883651;0.113744075829384;-0.954441913439636;0.148063781321185;0.74122286414448;0.663543107196934;0.0627386713980685;0.0797688515154709
2017/12/05 16:23:35.306;-0.326170732912016;9.51219512195122;2.12926841315281;-0.153311418424257;10.8711086256465;-2.39074153590964;0.111374407582938;-0.963553530751708;0.14123006833713;0.741254402369013;0.663303822806447;0.0642795879328191;0.0802376731597993
2017/12/05 16:23:35.316;-0.457291914064544;9.5609756097561;1.82675238206417;2.69614304509783;10.508945423872;-0.970185352405346;0.111374407582938;-0.963553530751708;0.14123006833713;0.740697466279013;0.663732787990797;0.0658491074016732;0.0805601927022131
2017/12/05 16:23:35.326;-0.529732510145988;9.62195121951219;1.75373881947685;1.04132334231607;5.54936873682656;0.282490916436088;0.118483412322275;-0.958997722095672;0.150341685649203;0.740153098723167;0.664206402739007;0.0670773459901656;0.0806466035609544
2017/12/05 16:23:35.336;-0.127815605157086;9.74390243902439;1.80595075961108;-0.470146017917435;-4.10561671180412;2.08965907753745;0.109004739336493;-0.952164009111617;0.145785876993166;0.739741269686993;0.66465476226267;0.0669414823847486;0.0808439166515396
2017/12/05 16:23:35.346;0.052924475404355;9.40243902439024;2.02462563029621;-1.92723136883347;-10.7746631340587;-1.20237040653345;0.109004739336493;-0.954441913439636;0.136674259681093;0.739904560696068;0.664548841456211;0.0662333404165084;0.0808036075781081
2017/12/05 16:23:35.356;-0.204231707302382;9.68292682926829;2.1304878034089;-2.36880706133419;-3.71853534830129;2.71586463345715;0.101895734597156;-0.949886104783599;0.14123006833713;0.740081016516055;0.664328229565197;0.0662114398957185;0.0810193657236882
2017/12/05 16:23:35.366;-0.240933884865995;9.52439024390244;2.14216897440435;-2.70093501171084;-3.49575644756705;1.61800481721919;0.111374407582938;-0.949886104783599;0.148063781321185;0.740320691866602;0.664029487830429;0.0663595514511634;0.0811573928672885
2017/12/05 16:23:35.376;-0.168613758665274;9.75609756097561;2.22722952506395;-2.32838644487029;-3.54825379117559;2.32916126581965;0.104265402843602;-0.954441913439636;0.145785876993166;0.740562529438256;0.663728392957151;0.0663103324768945;0.0814536689249414
2017/12/05 16:23:35.386;-0.0732309960305762;9.36585365853659;2.44505082256981;-1.84844741273353;-4.5114588655546;0.313813938213464;0.113744075829384;-0.956719817767654;0.136674259681093;0.741460013674518;0.662694787763189;0.0661328848385242;0.0818480783905224
2017/12/05 16:23:35.396;-0.0991849096018991;9.80487804878049;2.6014177894582;-0.562898545149491;-2.62956894846578;-0.280624064163426;0.111374407582938;-0.96127562642369;0.143507972665148;0.742219805437474;0.66178580672649;0.0661757843849693;0.0822804472080797
2017/12/05 16:23:35.406;-0.0839792600228664;9.24390243902439;2.30036502667688;1.80156433759522;2.83997544398507;0.420004769419897;0.12085308056872;-0.954441913439636;0.148063781321185;0.742399320231086;0.661451400591183;0.0665726932558804;0.0830263240728034
2017/12/05 16:23:35.416;-0.314097300231775;9.90243902439024;2.14143734025069;2.88587885569407;7.68745022506291;1.30036327283183;0.101895734597156;-0.956719817767654;0.145785876993166;0.741993957601058;0.661729793654258;0.06759469691278;0.0836038517239638
2017/12/05 16:23:35.426;-0.0193956507963661;9.46341463414634;1.93956507963661;4.17784206308285;4.12985019320981;1.53842999823282;0.101895734597156;-0.956719817767654;0.145785876993166;0.741368255107347;0.662300922558824;0.0679046799436236;0.084377442119162
2017/12/05 16:23:35.436;-0.299614469937079;9.63414634146341;1.91266650590304;3.27990931980386;2.60277604558452;-1.57866355996452;0.111374407582938;-0.96127562642369;0.14123006833713;0.740869673534111;0.662761157252635;0.068755238066768;0.0844540852356476
2017/12/05 16:23:35.446;-0.176350275639495;9.63414634146341;1.78136902736409;2.71528498465175;6.27162339761585;3.69999004174331;0.109004739336493;-0.956719817767654;0.145785876993166;0.740165409132314;0.66338784917648;0.0693181952328871;0.0852450379708572
2017/12/05 16:23:35.456;-0.103668739796605;9.69512195121951;1.83028861380685;0.914644338869444;-0.278356724775026;0.60420500397762;0.106635071090047;-0.956719817767654;0.143507972665148;0.739698321496036;0.663846178244441;0.0695143279615832;0.0855710407453742
2017/12/05 16:23:35.466;0.0776736901684501;9.58536585365854;1.9887285441306;-1.35021413846099;-2.57496219004341;-2.71558129823088;0.111374407582938;-0.952164009111617;0.145785876993166;0.739611238459231;0.663908174032884;0.0694383034041064;0.0859038673022616
2017/12/05 16:23:35.475;-0.289950434871294;9.5609756097561;2.16577519444647;-0.922669982775773;2.16373706461354;-0.034825977239178;0.109004739336493;-0.952164009111617;0.143507972665148;0.739808749712643;0.663579776531152;0.0701537940937974;0.0861588022301148
2017/12/05 16:23:35.485;-0.324002275059006;9.4390243902439;1.91242262785182;-1.08751981924847;-0.792740190689908;3.63105386475479;0.113744075829384;-0.954441913439636;0.145785876993166;0.739651362821482;0.663688062199322;0.0704993032064092;0.0863936676952963
2017/12/05 16:23:35.495;-0.143985013781901;9.64634146341463;2.20337942697061;-2.00747895880567;-5.73246304641616;-1.64023091057777;0.104265402843602;-0.952164009111617;0.143507972665148;0.739956932989604;0.663352911130968;0.0704915002721725;0.0863574027172397
2017/12/05 16:23:35.505;-0.19517002164021;9.78048780487805;2.44383143231372;1.54788907031528;-2.56814139415606;2.65377632937327;0.116113744075829;-0.963553530751708;0.148063781321185;0.740368079462708;0.662830288398194;0.0705668524832632;0.0867838408073337
2017/12/05 16:23:35.515;0.0761075817190541;9.28048780487805;2.1453393890702;0.122276361378407;1.93334654974501;1.82419525242775;0.116113744075829;-0.958997722095672;0.150341685649203;0.7404056346521;0.662664141264067;0.0704840542245307;0.0877936794891958
2017/12/05 16:23:35.525;-0.0114181940606997;9.85365853658536;2.36133160119192;2.66191417449366;-0.52784172902394;-1.67876204465588;0.106635071090047;-0.956719817767654;0.143507972665148;0.740519382300593;0.662458848955197;0.0706220513456117;0.0882714208667855
2017/12/05 16:23:35.535;-0.0585072259744346;9.36585365853659;2.1921860120776;2.03156821393831;9.25994166651346;-0.124272551497737;0.106635071090047;-0.956719817767654;0.143507972665148;0.740504826708923;0.662253385771578;0.0714009656500591;0.0893026133946101
2017/12/05 16:23:35.545;-0.435072566795627;9.69512195121951;2.04384204541638;3.56208449194321;9.92841406559046;-0.40570307946977;0.113744075829384;-0.956719817767654;0.148063781321185;0.740108476741929;0.662476358606292;0.0728992672227221;0.0897229835709899
2017/12/05 16:23:35.555;-0.420589736500931;9.54878048780488;1.81507121106873;3.30872290101128;3.7303343820703;0.642809901896267;0.111374407582938;-0.958997722095672;0.150341685649203;0.739507690697758;0.663021894980784;0.07385599039298;0.0898645361532095
2017/12/05 16:23:35.565;-0.3719345961378;9.65853658536585;1.82760595524344;1.12128171188778;0.529424014852133;1.52053346183658;0.109004739336493;-0.963553530751708;0.145785876993166;0.739079173783033;0.66342140825336;0.0744401114372701;0.0899593228104992
2017/12/05 16:23:35.575;-0.23984965593949;9.59756097560975;2.03374608175386;0.819518841290238;-4.60046607667663;1.65023852999252;0.106635071090047;-0.954441913439636;0.143507972665148;0.738989784203015;0.66350958920027;0.0744778714619471;0.0900120577776556
2017/12/05 16:23:35.585;0.0523221260007411;9.53658536585366;2.0848605706576;0.628911853998134;-4.04583358962691;2.16278407615514;0.106635071090047;-0.954441913439636;0.150341685649203;0.738903786842118;0.663575005194757;0.0740104732187104;0.0906192922345969
2017/12/05 16:23:35.595;0.125726481127967;9.69512195121951;2.0614982286667;1.1277300400404;0.48711069268763;2.72614707011752;0.104265402843602;-0.956719817767654;0.145785876993166;0.73869142883167;0.66371444457637;0.0737161419655096;0.0915644005333317
2017/12/05 16:23:35.605;-0.104030149438773;9.45121951219512;1.86642957802368;0.809450737192197;2.03412626178297;0.823379873140632;0.113744075829384;-0.952164009111617;0.148063781321185;0.73835899172412;0.663973176740889;0.0740750693358506;0.092078792409772
2017/12/05 16:23:35.615;-0.30009634945997;10.0;1.96085445819215;1.25231608910841;-2.11751377106415;4.48965244680879;0.109004739336493;-0.956719817767654;0.145785876993166;0.738039453032418;0.6642776591212;0.074247914945372;0.0923049537475225
2017/12/05 16:23:35.625;0.101820555528931;9.23170731707317;2.01306639832637;-2.06554488750275;-7.39373381751836;-3.44053655376111;0.111374407582938;-0.954441913439636;0.148063781321185;0.738239643356743;0.664084453636207;0.0738388659978671;0.0924223419058332
2017/12/05 16:23:35.635;-0.424203832922614;9.75609756097561;2.17648085323704;0.848777224869243;0.78042046460395;3.65235596017987;0.104265402843602;-0.947608200455581;0.150341685649203;0.738293120742185;0.663923809606022;0.0744991666564184;0.0926192046526651
2017/12/05 16:23:35.645;-0.0569411175250386;9.78048780487805;2.035575167138;-0.619339164363818;-3.42572997176873;3.69251306189601;0.104265402843602;-0.947608200455581;0.150341685649203;0.73816708158328;0.664024326836933;0.0742321356080012;0.0931162879342647
2017/12/05 16:23:35.655;0.244051410315918;9.42682926829268;2.42412726109111;-0.517132305187494;-12.3022262813134;-2.75770469770338;0.104265402843602;-0.958997722095672;0.154897494305239;0.738853942492869;0.663339141073748;0.0731048558961614;0.0934436494722233
2017/12/05 16:23:35.665;-0.146635351157802;9.58536585365854;2.46841316456071;0.696344605280934;1.81335236305893;1.72073948835806;0.109004739336493;-0.96127562642369;0.145785876993166;0.739500523677962;0.662481562416451;0.0734955842693454;0.0941039533238904
2017/12/05 16:23:35.675;-0.0445062752026296;9.52439024390244;2.01160313001906;2.41276135498039;5.49285055032114;1.39573165472379;0.106635071090047;-0.954441913439636;0.148063781321185;0.739151517876541;0.662698178803952;0.0739944183392652;0.094926200205025
2017/12/05 16:23:35.685;0.0806854371865193;9.5609756097561;1.68755384232367;3.86883153797292;3.63350177012178;1.2489152722396;0.109004739336493;-0.958997722095672;0.145785876993166;0.738349785396195;0.663458219334183;0.0742411135589704;0.0956610822687668
2017/12/05 16:23:35.695;-0.0674484417558832;9.79268292682927;1.86679539510051;1.98659824989869;-0.0213115905294572;2.13115905294572;0.0995260663507109;-0.96127562642369;0.145785876993166;0.737871540796889;0.663911641968837;0.0743929215872418;0.0960864931089832
2017/12/05 16:23:35.705;-0.165722481527927;9.53658536585366;1.9381018113293;-0.831851080405276;-2.66209562750652;-1.56653407234308;0.109004739336493;-0.956719817767654;0.154897494305239;0.737760867479774;0.663997767727468;0.0747462326099939;0.0960669952639534
2017/12/05 16:23:35.715;-0.0314690834766068;9.52439024390244;1.92739615253873;0.55620641218038;-0.158987322947541;0.770139253906903;0.111374407582938;-0.956719817767654;0.152619589977221;0.737521523788557;0.664177741244259;0.0749086018162637;0.0965330583697234
2017/12/05 16:23:35.725;-0.204834056705996;9.75609756097561;2.19072274377029;-1.16494556822294;-2.16956064860657;0.617184376541577;0.111374407582938;-0.956719817767654;0.154897494305239;0.737745189169551;0.66386793805288;0.0752316999906701;0.0967036090283859
2017/12/05 16:23:35.735;-0.0467952029363623;9.45121951219512;2.24049590339232;-0.792462999273571;-2.53748774877748;-1.9244475125692;0.104265402843602;-0.952164009111617;0.148063781321185;0.738158544277018;0.663353274301058;0.0753678444519598;0.0969746616780072
2017/12/05 16:23:35.745;-0.194447202355874;9.60975609756098;2.37154950388006;0.663802115007135;2.001285641902;-0.431136051016914;0.118483412322275;-0.965831435079727;0.148063781321185;0.738672970432488;0.662644087076887;0.0760239188511313;0.09739312284243
2017/12/05 16:23:35.755;-0.0946070541344337;9.54878048780488;2.14363224271167;1.84931654208052;4.09039812876831;-0.567800773956453;0.118483412322275;-0.965831435079727;0.148063781321185;0.738654244593732;0.662504285793297;0.0766343435349932;0.0980058959457978
2017/12/05 16:23:35.765;-0.263755581538526;9.60975609756098;1.98531425141353;2.72094278617477;5.81585396837139;0.865435235478284;0.109004739336493;-0.96127562642369;0.152619589977221;0.738286614674771;0.662735627439005;0.0775499779342859;0.0984904240902967
2017/12/05 16:23:35.775;-0.299494000056356;9.58536585365854;1.90061951783076;1.82726181621447;5.38171909589747;0.406002664413635;0.104265402843602;-0.952164009111617;0.145785876993166;0.737922016514288;0.662977763910366;0.0784915097706725;0.0988466741869323
2017/12/05 16:23:35.785;-0.163915433317086;9.57317073170732;1.75739699024514;2.00415383277425;1.23684862223482;1.88246001554962;0.0995260663507109;-0.956719817767654;0.148063781321185;0.737365533364217;0.663498782427232;0.078846236429817;0.0992204964961272
2017/12/05 16:23:35.795;0.00704014229784779;9.65853658536585;1.73501016045912;1.22693757926209;-0.932858246270286;4.0271256860301;0.109004739336493;-0.96127562642369;0.148063781321185;0.736821835017413;0.66402839314763;0.0786893344652136;0.0998391965951829
2017/12/05 16:23:35.805;0.0422966812927876;9.45121951219512;1.867892846331;-0.404453214531519;-6.36212373837438;2.32432542594029;0.104265402843602;-0.954441913439636;0.145785876993166;0.736654763273649;0.664224931010997;0.0782009719594102;0.100147934348569
2017/12/05 16:23:35.815;-0.178036853969613;9.89024390243902;1.95002686037597;-3.10596253397891;-2.40568493963458;3.0495832221568;0.106635071090047;-0.954441913439636;0.157175398633257;0.736592954477954;0.664239394143468;0.0782759968607196;0.100447573374461
2017/12/05 16:23:35.825;-0.0319509629994979;9.35365853658537;1.97558410482784;-2.22303440166437;-6.35741772259291;1.85372384779327;0.0947867298578199;-0.952164009111617;0.148063781321185;0.736711388434973;0.66411829408741;0.0779216323801369;0.100655058570631
2017/12/05 16:23:35.835;-0.131550171459492;9.97560975609756;2.17940738985167;-2.59274693943533;-8.1326693111164;0.861484818144986;0.0995260663507109;-0.954441913439636;0.143507972665148;0.737037151802458;0.663797812676961;0.0776878923726678;0.100564865270606
2017/12/05 16:23:35.845;0.355121702052539;9.25609756097561;2.29270784352655;-1.68306212541189;-10.2881747986796;3.09887169852059;0.104265402843602;-0.956719817767654;0.145785876993166;0.737645769657252;0.663155367452091;0.076208347980719;0.101469033819641
2017/12/05 16:23:35.855;-0.244909390929846;9.73170731707317;2.5397195807895;-0.91995619507705;6.20636314891522;4.17457769546736;0.109004739336493;-0.952164009111617;0.148063781321185;0.738464335565424;0.662015977463768;0.0770300330589724;0.102331054365435
2017/12/05 16:23:35.865;-0.0222869279337127;9.65853658536585;2.22869279337126;1.92061801403704;-6.3985724602352;-0.082239604316859;0.109004739336493;-0.952164009111617;0.148063781321185;0.73855597382452;0.661913022084773;0.0768777007199566;0.102450201828648
2017/12/05 16:23:35.875;0.185009415602665;9.5;2.23076575680663;0.959121420034543;-0.159285868033424;2.31285306657992;0.111374407582938;-0.956719817767654;0.148063781321185;0.7386575211206;0.661678241791223;0.0765957915851867;0.103441072807104
2017/12/05 16:23:35.885;-0.253609666949849;9.35365853658537;2.19023498766785;1.23167319548441;3.99891998098839;8.58001400403497;0.113744075829384;-0.96127562642369;0.143507972665148;0.738790920235554;0.661337486951757;0.077091018959084;0.104296113665312
2017/12/05 16:23:35.895;0.468119511880725;9.25609756097561;1.96853661680555;6.69213992640236;-18.2172276165531;1.75301884139648;0.109004739336493;-0.954441913439636;0.152619589977221;0.738251331451215;0.662117491050898;0.0753472409428452;0.104442294772148
2017/12/05 16:23:35.905;1.42249659841539;10.2926829268293;1.65277918285162;-1.46170233902999;-11.1667494294784;3.21049514148519;0.113744075829384;-0.956719817767654;0.154897494305239;0.737541852604124;0.66296289402488;0.0731266255545143;0.105663207591105
2017/12/05 16:23:35.915;0.933294857408176;9.42682926829268;1.79246547869456;-5.40576637657466;0.504912504279738;-0.566893393178009;0.104265402843602;-0.96127562642369;0.152619589977221;0.73733387576633;0.66306601410294;0.0721518168942916;0.107127643061419
2017/12/05 16:23:35.925;0.270728143171578;10.0243902439024;2.19547836576906;-0.473429225629612;-3.79630742551514;-7.66123929417396;0.0995260663507109;-0.956719817767654;0.150341685649203;0.737421920475724;0.662951198061157;0.072346189564553;0.107101115991676
2017/12/05 16:23:35.935;-0.251441209096839;9.5;1.97338920236686;-4.87762711168833;5.85797808407876;-1.83411703117409;0.113744075829384;-0.954441913439636;0.145785876993166;0.737657422277053;0.662523038467359;0.0736677298857721;0.107227871530814
2017/12/05 16:23:35.945;-0.413455568930324;9.51219512195122;2.32116664912997;-3.42758200150582;-4.51720506215907;-5.16300361767859;0.113744075829384;-0.952164009111617;0.143507972665148;0.738517233740036;0.661570110836432;0.0748683119180165;0.106357979425068
2017/12/05 16:23:35.954;-0.586338662636822;9.17073170731707;2.53630528807243;0.983013696530157;-5.71785286736064;1.43732909612475;0.109004739336493;-0.952164009111617;0.145785876993166;0.739635778287696;0.66031305747911;0.076031301243733;0.105569042955446
2017/12/05 16:23:35.964;-0.0935228252079288;9.96341463414634;2.03520935006117;0.419820917162707;-0.481662952814151;2.78051615887352;0.106635071090047;-0.956719817767654;0.148063781321185;0.739316628327905;0.660580473627182;0.0762952540013232;0.105940526510016
2017/12/05 16:23:35.974;-0.177916384088891;9.40243902439024;1.93797987230369;-0.533702140543605;-5.22769917195512;0.833457286284002;0.106635071090047;-0.956719817767654;0.148063781321185;0.739159445430712;0.660755028336161;0.0765078873627148;0.105795320928362
2017/12/05 16:23:35.984;-0.143985013781901;10.0365853658537;2.20337942697061;-1.68231895575792;-6.4929209419265;-1.23740656378007;0.12085308056872;-0.956719817767654;0.138952164009112;0.739365125873142;0.660540908320767;0.0766992684547377;0.10555634180795
2017/12/05 16:23:35.994;-0.436397735483578;9.28048780487805;2.17635891421143;-1.84142745371127;0.046568556027643;-1.63113699459486;0.109004739336493;-0.956719817767654;0.145785876993166;0.7397477835795;0.660029129114821;0.0778667883017048;0.105221331909104
2017/12/05 16:23:36.004;-0.132272990743829;9.82926829268293;2.25168931828533;1.74371286185487;-3.97713366231747;-3.19434935070338;0.111374407582938;-0.958997722095672;0.138952164009112;0.739836706595648;0.659907675298338;0.0782754198265974;0.105054587272607
2017/12/05 16:23:36.014;-0.596484577225498;9.57317073170732;2.33138455181811;2.7100517229724;-0.489562306315462;-0.968126403249527;0.104265402843602;-0.952164009111617;0.145785876993166;0.740078347881864;0.659560131403266;0.0796168506489601;0.104525734403052
2017/12/05 16:23:36.024;-0.518743306392252;9.51219512195122;1.87433063922523;0.792717727902499;7.11527157330326;-1.99614371459263;0.106635071090047;-0.963553530751708;0.145785876993166;0.739713342711612;0.659783350265102;0.0811826344518948;0.104496321422436
2017/12/05 16:23:36.034;-0.629693128248151;9.8780487804878;1.99370306871752;2.57603075671769;3.72071262813105;0.0921259917361952;0.106635071090047;-0.949886104783599;0.154897494305239;0.739278251084322;0.660128371647576;0.0825275651985821;0.104342711302806
2017/12/05 16:23:36.044;-0.483607237278035;9.34146341463415;2.01926031316939;1.41670568804955;1.66076739840978;-5.7136536079978;0.113744075829384;-0.952164009111617;0.145785876993166;0.739226768171948;0.660084430312602;0.0839053577374475;0.103885615076848
2017/12/05 16:23:36.054;-0.837109941665252;9.71951219512195;2.00367709335443;2.29818739858235;6.12204006595435;2.01687086296098;0.111374407582938;-0.96127562642369;0.143507972665148;0.738968145942336;0.6601866157275;0.0855668592803813;0.103720896109258
2017/12/05 16:23:36.064;-0.457412383945267;9.51219512195122;1.83879937013645;1.39916905582834;-2.338896124556;0.909279626553086;0.106635071090047;-0.958997722095672;0.148063781321185;0.738577127597224;0.660581331789068;0.0861104154520787;0.103542875335221
2017/12/05 16:23:36.074;-0.116224051999737;9.62195121951219;1.86630763899807;1.60441064933465;-6.35730458261071;3.35526915365826;0.109004739336493;-0.945330296127563;0.150341685649203;0.738125911682569;0.661097432630935;0.0857192578019416;0.10379080842467
2017/12/05 16:23:36.084;0.174140681729652;9.64634146341463;2.09812694898597;0.644592073616859;-8.78826063330917;2.88052626586421;0.109004739336493;-0.945330296127563;0.150341685649203;0.738012699679055;0.661262629743773;0.0846891231068005;0.104387461144443
2017/12/05 16:23:36.094;0.44120183926362;9.57317073170732;2.22127948827215;0.372323925546667;-8.16743643898256;1.31247899659134;0.111374407582938;-0.954441913439636;0.143507972665148;0.738140353863214;0.661140560014093;0.0833015731832356;0.105369947367069
2017/12/05 16:23:36.104;0.368038423897839;9.62195121951219;2.2205478541185;0.687714973809919;-0.388726641616889;1.0511815595709;0.118483412322275;-0.96127562642369;0.145785876993166;0.738194038806283;0.66096238775825;0.0826377467583333;0.106626853327326
2017/12/05 16:23:36.114;0.209999570128206;9.60975609756098;2.17077469449646;1.28670826978099;4.30641375231666;-0.989332871605521;0.106635071090047;-0.954441913439636;0.150341685649203;0.738093836023902;0.66088789681743;0.0827340288949347;0.107702170482159
2017/12/05 16:23:36.124;0.015138068914237;9.57317073170732;2.14472969394215;1.40929932159017;6.28579977648567;-2.25622575749315;0.113744075829384;-0.949886104783599;0.152619589977221;0.738002784202814;0.66077314014916;0.0834101359181573;0.108505746356718
2017/12/05 16:23:36.134;-0.094486584253711;9.58536585365854;2.13158525463939;2.0785374453898;5.78286885371259;-1.88749051498073;0.109004739336493;-0.954441913439636;0.150341685649203;0.73788476533561;0.660702460786427;0.0842230822499875;0.109109137164053
2017/12/05 16:23:36.144;-0.166806710454432;9.58536585365854;2.04652470397979;2.4270200728681;5.34242671212076;-1.71619617425405;0.101895734597156;-0.952164009111617;0.152619589977221;0.737610821918841;0.660820710554365;0.0851086837969283;0.109557180654629
2017/12/05 16:23:36.154;-0.20242465909154;9.60975609756098;1.94978298232475;2.18223208279577;4.98966461467781;0.277108880176423;0.111374407582938;-0.956719817767654;0.150341685649203;0.737253483744297;0.66103440392;0.085912365837874;0.110044913272571
2017/12/05 16:23:36.164;-0.0655209236643188;9.32926829268293;1.67404358594408;2.40003985986486;1.34685668585274;-0.0411905217339002;0.109004739336493;-0.958997722095672;0.150341685649203;0.736632151171593;0.661615753558477;0.0862897237385806;0.110416267282856
2017/12/05 16:23:36.174;-0.00696080847395719;10.1951219512195;1.91559304251767;0.859827541809011;-0.871032169436452;6.92167382715503;0.109004739336493;-0.952164009111617;0.150341685649203;0.736152320522328;0.662049095500342;0.086013312582364;0.111231588118564
2017/12/05 16:23:36.184;-0.225125885883348;9.35365853658537;1.78088127126165;-2.84875328892077;-4.71118188770114;-0.893914104318854;0.106635071090047;-0.956719817767654;0.148063781321185;0.73610066545185;0.662107588002619;0.0862721685869006;0.111024615099587
2017/12/05 16:23:36.194;1.37179347007997;9.48780487804878;1.84504323590562;-0.230284402970681;-14.6189915491893;6.52850438943125;0.106635071090047;-0.956719817767654;0.148063781321185;0.735670540277698;0.662699491398291;0.0832303981675785;0.112654077107011
2017/12/05 16:23:36.204;0.844082503298304;10.2560975609756;2.17711552382816;-5.23832196695034;-16.8027114182233;0.997314288289153;0.109004739336493;-0.949886104783599;0.148063781321185;0.735912488128284;0.662588556891242;0.081030033089878;0.113328495229893
2017/12/05 16:23:36.214;0.322274560672055;9.29268292682927;1.91888539620913;-1.34141965204263;-1.27636221890615;-0.956818956585876;0.113744075829384;-0.954441913439636;0.152619589977221;0.735840260539356;0.662574004504768;0.0807938494235118;0.11404890801415
2017/12/05 16:23:36.224;-0.15641985610431;9.91463414634146;2.22735146408956;-3.81846288629238;2.6930009614362;-7.57543653696357;0.12085308056872;-0.958997722095672;0.14123006833713;0.736441965951803;0.66178112816727;0.08202063035492;0.113892868007089
2017/12/05 16:23:36.234;0.0517197765971272;8.92682926829268;2.14509551101898;-3.11582870317252;2.42369309408655;-3.33753936326932;0.106635071090047;-0.956719817767654;0.145785876993166;0.737049289836237;0.660948302277499;0.0825287136488565;0.114432064963693
2017/12/05 16:23:36.244;-1.15884973359849;9.73170731707317;2.47033921350739;1.52588110208438;0.259003595573187;2.84396722029097;0.111374407582938;-0.956719817767654;0.143507972665148;0.73777982244261;0.66005396275933;0.0846754124487881;0.113312728185687
2017/12/05 16:23:36.254;-0.0291801557428741;9.07317073170732;1.69850337916546;-1.84947496442584;-2.57779837496937;2.1066151066191;0.118483412322275;-0.954441913439636;0.148063781321185;0.737484310141189;0.660327048672591;0.0846821568699894;0.113639840701957
2017/12/05 16:23:36.264;-0.742570468195614;9.60975609756098;2.30582730736624;-3.06532392988054;-4.04169410000583;1.74883511404738;0.111374407582938;-0.956719817767654;0.145785876993166;0.738181855651894;0.659524987166735;0.0858447803691285;0.112893812817272
2017/12/05 16:23:36.274;-0.145069242708406;9.32926829268293;2.31180231962111;1.41827294974961;-6.34164538726126;0.276490314628791;0.111374407582938;-0.952164009111617;0.150341685649203;0.738564386024671;0.659082714847667;0.0858650220095427;0.112959376239117
2017/12/05 16:23:36.284;-0.192399214383587;9.57317073170732;2.16675070665134;-0.613656250956504;2.45668644336195;0.927422229614645;0.111374407582938;-0.96127562642369;0.14123006833713;0.738695472533188;0.658781201070973;0.0864729850219609;0.113396432200697
2017/12/05 16:23:36.294;-0.300578228982861;9.54878048780488;2.00904241048126;-0.342977540179645;2.79149991076745;0.728980178928317;0.116113744075829;-0.954441913439636;0.145785876993166;0.738573604009522;0.658765227146536;0.0872913409570287;0.113655746695372
2017/12/05 16:23:36.304;-0.338726045115148;9.78048780487805;2.16528743834403;0.0084923816304491;-0.913304912654983;-3.9796448918391;0.116113744075829;-0.954441913439636;0.145785876993166;0.73866829396482;0.658584245185361;0.088188869272979;0.113396061752972
2017/12/05 16:23:36.314;-0.485173345727431;9.51219512195122;2.17587115810899;0.858103954473443;2.5249849611928;-1.36385164121671;0.113744075829384;-0.956719817767654;0.145785876993166;0.738794484113598;0.658296803351324;0.0894070390731564;0.113289056421714
2017/12/05 16:23:36.324;-0.558577700854657;9.65853658536585;2.19923350009989;0.856154064013586;1.71884263676424;-2.44402161893547;0.111374407582938;-0.947608200455581;0.148063781321185;0.738893099621279;0.658057793174078;0.0906981830160148;0.113007821731567
2017/12/05 16:23:36.334;-0.730135625873205;9.46341463414634;2.28185527024729;1.63415908640818;3.13519120796741;-0.357244851204333;0.111374407582938;-0.952164009111617;0.145785876993166;0.739175181966121;0.657577193759;0.0922711892597341;0.112686788249488
2017/12/05 16:23:36.344;-0.7290513969467;9.52439024390244;2.1734323775968;2.79282411771685;3.73499686563613;3.20228015348205;0.111374407582938;-0.949886104783599;0.145785876993166;0.739118460129659;0.657458544883302;0.0935845399500546;0.112668085711214
2017/12/05 16:23:36.354;-0.252525438023344;9.60975609756098;2.08181209501736;4.33538677741757;-3.08119399772917;5.54753895597324;0.113744075829384;-0.947608200455581;0.148063781321185;0.738723038274803;0.657835311177223;0.0934903216537186;0.113139453098796
2017/12/05 16:23:36.364;0.284367684301214;9.60975609756098;2.05103644792735;3.37416737000359;-4.5266733666446;4.86098265538285;0.106635071090047;-0.963553530751708;0.152619589977221;0.738235937921725;0.658340317049155;0.0924699365097282;0.114214875346149
2017/12/05 16:23:36.374;0.552633540642409;9.65853658536585;2.05371910649076;3.87445830662244;-1.91211475652427;3.61692194592186;0.113744075829384;-0.954441913439636;0.148063781321185;0.7377101596554;0.658833113261764;0.0913418321020231;0.115669005871328
2017/12/05 16:23:36.384;0.55395870933036;9.65853658536585;1.92120223769571;3.45909146401796;3.44205744662503;0.726176668812803;0.116113744075829;-0.949886104783599;0.152619589977221;0.737042370758676;0.659391725377341;0.090849379767592;0.117121673511639
2017/12/05 16:23:36.394;0.188864451785794;9.62195121951219;1.84526213849376;2.39376941537095;7.96828508079116;-1.06451413055334;0.109004739336493;-0.952164009111617;0.148063781321185;0.736450947545419;0.659797648699512;0.0913214027390456;0.118184034589376
2017/12/05 16:23:36.404;-0.18950793724624;9.62195121951219;1.87762299291669;1.63000086672651;7.14573759589546;-2.01702736564323;0.111374407582938;-0.949886104783599;0.150341685649203;0.736056151797339;0.660007371875154;0.0923799881379627;0.118648844340665
2017/12/05 16:23:36.414;-0.323399925655392;9.54878048780488;1.85218768749043;0.66616312827573;4.20060739745134;-0.998712513666534;0.111374407582938;-0.949886104783599;0.150341685649203;0.735762890979062;0.660159778351242;0.0933773215122772;0.118839013512251
2017/12/05 16:23:36.424;-0.444857071742135;9.58536585365854;1.80278034494523;0.0501331633076441;0.528324640994484;1.63047084760148;0.113744075829384;-0.952164009111617;0.148063781321185;0.735495855279289;0.660350769913672;0.0941451288838407;0.118825090990302
2017/12/05 16:23:36.433;-0.137961519745763;9.5609756097561;1.60103002335676;-2.32945156894914;-1.55439868768477;4.1539383600052;0.109004739336493;-0.947608200455581;0.148063781321185;0.735069561816045;0.660752850441666;0.0941312041030264;0.119238107746205
2017/12/05 16:23:36.443;0.174863501013989;9.60975609756098;2.02584502055231;-1.48299210421348;-14.6098612400595;4.10261417236401;0.104265402843602;-0.956719817767654;0.150341685649203;0.735137050090894;0.660827811940091;0.0927433208341725;0.119493920308859
2017/12/05 16:23:36.453;0.734819259772524;9.81707317073171;2.12783012030857;-4.79923874451527;-11.960966912276;5.47641891292529;0.111374407582938;-0.956719817767654;0.145785876993166;0.735350709237434;0.660661602726604;0.0905635436122136;0.120763511356357
2017/12/05 16:23:36.463;1.65962833631418;9.67073170731707;2.32984929541133;-0.740015839756586;-12.6896120853236;-0.327747594724055;0.113744075829384;-0.958997722095672;0.14123006833713;0.735504985805533;0.660561011969993;0.0874876031872164;0.12262742192894
2017/12/05 16:23:36.473;0.303575284552062;9.65853658536585;2.56930081308648;-3.96477440444073;-3.00347338471549;2.31405556685944;0.116113744075829;-0.947608200455581;0.148063781321185;0.736563572975697;0.659246905799988;0.0868020189302124;0.123826611308137
2017/12/05 16:23:36.483;0.578226044571564;9.39024390243902;1.93349310381921;-2.85698537907905;5.80145910678908;-3.74651582262966;0.111374407582938;-0.96127562642369;0.14123006833713;0.736468308936657;0.659121677247256;0.0868042585725104;0.125052249913476
2017/12/05 16:23:36.493;-0.730617505396096;9.14634146341463;2.3300432225364;-0.0194315756504609;7.48171196938845;-5.35727863324748;0.109004739336493;-0.954441913439636;0.145785876993166;0.73727085600369;0.658013156624641;0.0894019864070939;0.124328819760049
2017/12/05 16:23:36.503;-0.51862283651153;9.85365853658536;1.86228365115296;-2.31489886084307;11.7705811385637;-3.07929388662832;0.106635071090047;-0.956719817767654;0.148063781321185;0.737046197983184;0.657969069408805;0.0913860370137513;0.124451588896108
2017/12/05 16:23:36.513;0.443731706758798;9.82926829268293;1.96829273875433;0.322219206927019;-7.30421790156946;4.24932419628029;0.106635071090047;-0.954441913439636;0.145785876993166;0.736669626024378;0.658389663696897;0.0902926725746748;0.125252329756824
2017/12/05 16:23:36.523;0.00137805790387755;9.85365853658536;2.30121859985615;-1.46379618235076;-16.2025866267223;-1.52651130658988;0.106635071090047;-0.954441913439636;0.145785876993166;0.737109689782027;0.658088858833433;0.0896311378449734;0.124718155203521
2017/12/05 16:23:36.533;-0.399454618158519;9.17073170731707;2.14058376707143;-2.37939101787916;4.15896490826604;-2.88590081147508;0.111374407582938;-0.949886104783599;0.150341685649203;0.737514800891075;0.657453011846655;0.0910989330396438;0.12461316174224
2017/12/05 16:23:36.543;-0.2420181137925;9.68292682926829;2.25059186705485;2.14600084498141;1.15544014539772;0.946151874751706;0.111374407582938;-0.949886104783599;0.148063781321185;0.737564259593201;0.657247658830598;0.0918407769472013;0.124858918873124
2017/12/05 16:23:36.553;-0.300698698863584;9.65853658536585;2.02108939855353;-0.156545732471001;-0.346674525966327;-1.64117070140058;0.113744075829384;-0.956719817767654;0.145785876993166;0.737489246712915;0.657240804849678;0.0926732828197812;0.124722885128472
2017/12/05 16:23:36.563;-0.446664119952977;9.4390243902439;1.98348516602939;1.02145350380707;3.62771079111303;0.315153869029419;0.12085308056872;-0.956719817767654;0.150341685649203;0.737332975204451;0.657237967413667;0.0938924880588138;0.124749904016913
2017/12/05 16:23:36.573;-0.50835645204213;9.63414634146341;2.055157399335;1.06293150806336;-1.16209483947929;-0.28068246659492;0.113744075829384;-0.952164009111617;0.148063781321185;0.737272965081899;0.657226774502396;0.0948883702583369;0.124409561635102
2017/12/05 16:23:36.583;-0.531780498118275;9.75609756097561;1.95853761670556;0.413869220384347;0.554055526219955;3.59596023730859;0.113744075829384;-0.956719817767654;0.148063781321185;0.737039972386536;0.657366989509969;0.0957321972967147;0.124402840031074
2017/12/05 16:23:36.593;-0.177675444327445;9.57317073170732;1.91388589615914;2.37126921201318;-3.11553428990013;-1.60844695552392;0.111374407582938;-0.952164009111617;0.150341685649203;0.736678845152406;0.657730485197475;0.0961027129471291;0.124334856379909
2017/12/05 16:23:36.603;-0.338123695711534;9.53658536585366;2.10505249798264;1.65192140513737;-2.71280018975623;0.478203544457646;0.106635071090047;-0.956719817767654;0.150341685649203;0.736656493603989;0.657693639118816;0.0966250004212835;0.124257381218628
2017/12/05 16:23:36.613;-0.569566904608393;9.5609756097561;2.07864168035151;-0.579598183661382;2.77469728362514;-0.616475715009863;0.104265402843602;-0.945330296127563;0.148063781321185;0.736736259036056;0.657446292989622;0.0978946759331696;0.124099512004282
2017/12/05 16:23:36.623;-0.0920771866392555;9.59756097560975;1.89064549319385;1.02319228510811;-6.19570769049126;3.83703228664532;0.106635071090047;-0.954441913439636;0.148063781321185;0.736378320554506;0.657850322695916;0.0975426744195754;0.124359754797447
2017/12/05 16:23:36.633;0.357892509309163;9.69512195121951;2.01562711786418;0.735992265351714;-7.59211209682212;2.78155763985143;0.106635071090047;-0.954441913439636;0.148063781321185;0.736107973166194;0.658168987828878;0.0964460824747183;0.125127089300229
2017/12/05 16:23:36.643;0.539475879035664;9.59756097560975;2.14997307204337;0.570927792277844;-3.69726382211613;0.588712014941298;0.109004739336493;-0.952164009111617;0.145785876993166;0.736035925724754;0.658176404824641;0.0953966778738842;0.126310767653598
2017/12/05 16:23:36.653;0.405102011103621;9.60975609756098;2.17272571890622;1.04138040619361;3.75805128416781;-0.616021003769946;0.116113744075829;-0.952164009111617;0.152619589977221;0.735930438121009;0.658067326735967;0.095178652825668;0.127651117409479
2017/12/05 16:23:36.663;0.114375867732063;9.63414634146341;1.97704737313515;1.20021302124287;7.26043911129768;-1.38430447318721;0.106635071090047;-0.952164009111617;0.150341685649203;0.735589035462308;0.658183074679059;0.0957967676767788;0.128556565045638
2017/12/05 16:23:36.673;-0.202063249449372;9.62195121951219;1.91364201810792;0.0982755309651887;5.25734423643356;-2.28510443004266;0.118483412322275;-0.949886104783599;0.148063781321185;0.735390579421576;0.658195206561293;0.0968533542178136;0.128837857536105
2017/12/05 16:23:36.683;-0.373741644348642;9.5609756097561;2.0083107763276;-0.274708942600004;1.1314229665892;-1.19070815665098;0.116113744075829;-0.947608200455581;0.145785876993166;0.735440315996343;0.658011061471691;0.0978441838885028;0.128745874758343
2017/12/05 16:23:36.693;-0.228619512424309;9.58536585365854;2.13024392535768;0.0222007946201338;-2.16470269421493;0.131388937377711;0.118483412322275;-0.952164009111617;0.152619589977221;0.735579603741618;0.657769067849603;0.0982843022571089;0.128851448844869
2017/12/05 16:23:36.703;-0.0704601887739524;9.57317073170732;2.16797009690744;0.602735428387484;-1.67200078515755;0.785555066435891;0.111374407582938;-0.958997722095672;0.143507972665148;0.735733427689791;0.657497021586956;0.0984182751615356;0.12925878344755
2017/12/05 16:23:36.713;0.00306463623399635;9.58536585365854;2.13256076684427;1.19106492995606;1.58704529679597;1.65855655338371;0.113744075829384;-0.945330296127563;0.145785876993166;0.735701932672443;0.657356387313166;0.0986034244633996;0.130010041937945
2017/12/05 16:23:36.723;0.0897471228486907;9.63414634146341;2.00089747122849;1.31786344131032;1.57341663565816;1.50856336308007;0.111374407582938;-0.952164009111617;0.148063781321185;0.735422279253506;0.657501689280353;0.0986886355680356;0.13079049270027
2017/12/05 16:23:36.733;0.187659752978566;9.64634146341463;1.96573201921653;0.982651706673831;0.665661834707363;-0.000374091008649623;0.111374407582938;-0.952164009111617;0.152619589977221;0.735100955019669;0.657714665831634;0.0986686161964772;0.131538999756824
2017/12/05 16:23:36.743;0.163512887618085;9.62195121951219;1.94139416502076;0.561787658334875;2.90768354021992;-0.299367637725968;0.111374407582938;-0.952164009111617;0.152619589977221;0.734785414083845;0.657876516984857;0.0988618805444929;0.132345049868565
2017/12/05 16:23:36.753;0.0299823088511014;9.64634146341463;1.87981789537767;0.0392317061352504;4.32513108107365;-1.34820644322027;0.137440758293839;-0.895216400911162;0.168564920273349;0.734399499517746;0.658072211324304;0.0994824315761114;0.133047305867236
2017/12/05 16:23:36.763;-0.152805759682627;9.59756097560975;1.86594182192125;-0.57757461657395;3.81474502202441;-1.74681687717645;0.139810426540284;-0.89749430523918;0.168564920273349;0.734120422521078;0.658166598594557;0.100366766457954;0.133455782649981
2017/12/05 16:23:36.773;-0.287300097495393;9.59756097560975;1.90074145685637;-1.31009302945661;1.96063501694888;-0.904651467959278;0.144549763033175;-0.899772209567198;0.170842824601367;0.733976593857374;0.658144396359006;0.101277762318409;0.133667976982306
2017/12/05 16:23:36.783;-0.264237461061417;9.59756097560975;2.03350220370264;-1.6511915346131;-1.47973029502731;-0.287182297571516;0.135071090047393;-0.902050113895216;0.16628701594533;0.734054796803589;0.657939672208869;0.101869899050736;0.133796362770896
2017/12/05 16:23:36.793;-0.217268899028404;9.54878048780488;2.21469478088923;-2.06164012294316;-3.80211499967935;0.483814642670669;0.137440758293839;-0.892938496583144;0.170842824601367;0.734406681158592;0.657449439305137;0.102183162217391;0.134036050323183
2017/12/05 16:23:36.803;-0.132393460624552;9.5609756097561;2.26373630635761;-0.894710607368192;-3.2202354483136;1.29737236539922;0.137440758293839;-0.908883826879271;0.159453302961276;0.734804619867802;0.656894179570269;0.102326908995394;0.134467137855639
2017/12/05 16:23:36.813;-0.0587481657358801;9.62195121951219;2.21627998822216;0.0288827282578763;-1.80816737811032;2.29933992903476;0.137440758293839;-0.89749430523918;0.170842824601367;0.73487556795928;0.656661820841899;0.10239966964313;0.135157168963045
2017/12/05 16:23:36.823;-0.0937637649693743;9.57317073170732;2.05930332620573;0.57435471165644;-1.12914746759952;2.47601756176711;0.139810426540284;-0.89749430523918;0.168564920273349;0.734720479954603;0.656682443399127;0.102601072436487;0.135746104185397
2017/12/05 16:23:36.833;-0.0305053244308246;9.62195121951219;1.83102024796051;0.278536785455969;0.397851863739479;4.08773344450894;0.135071090047393;-0.899772209567198;0.173120728929385;0.734214197628297;0.657072922692449;0.102726110145519;0.136499203513458
2017/12/05 16:23:36.843;0.507833436462407;9.60975609756098;1.65568074400318;0.322700529235674;-5.97892424736251;3.33871823095641;0.135071090047393;-0.895216400911162;0.168564920273349;0.733528817061309;0.657801545147016;0.101782532368937;0.137378738702179
2017/12/05 16:23:36.853;0.578105574690841;9.80487804878049;1.94554009189149;-0.701859476214917;-9.81856566500741;1.52373745384246;0.135071090047393;-0.895216400911162;0.168564920273349;0.733227281319147;0.658167103818283;0.100540041039848;0.138150343931862
2017/12/05 16:23:36.863;0.294995478412782;9.47560975609756;2.20776923189256;-3.52275504974555;-1.89903166385321;-3.74282453752272;0.106635071090047;-0.952164009111617;0.152619589977221;0.733695858970894;0.657534495392303;0.100339654121919;0.138819046635702
2017/12/05 16:23:36.873;-0.0471566125785306;9.53658536585366;2.27663686760915;-1.43003674552099;4.8987422801041;-2.73353209512993;0.113744075829384;-0.952164009111617;0.152619589977221;0.734167384961839;0.656755130406759;0.101193616010692;0.13939441029459
2017/12/05 16:23:36.883;-0.877305745769825;9.4390243902439;2.36472091844592;-0.787587148512485;4.96992492840224;-2.28750040452007;0.113744075829384;-0.954441913439636;0.138952164009112;0.735082062336811;0.655532393411983;0.103515673389692;0.138622322087378
2017/12/05 16:23:36.893;-0.259900545355397;9.89024390243902;1.59981063310066;-5.9854834688032;4.20334213837103;7.80496921887326;0.116113744075829;-0.952164009111617;0.150341685649203;0.734706249111477;0.65572858233222;0.103906092387743;0.139392531341646
2017/12/05 16:23:36.903;1.21640495368624;9.30487804878049;1.53023633869349;2.69224256263925;-21.0715041206961;1.25026078367695;0.116113744075829;-0.956719817767654;0.143507972665148;0.733935959653827;0.65690652311802;0.10124929524157;0.139858525750476
2017/12/05 16:23:36.912;0.0846873878583344;9.98780487804878;2.50687097026413;-3.31528663042583;-12.2853351848811;1.6046228754038;0.106635071090047;-0.949886104783599;0.143507972665148;0.734807759286504;0.656022647518367;0.100451085926968;0.140005079091559
2017/12/05 16:23:36.922;0.646570664708434;9.25609756097561;2.41610426086395;-5.30172975241618;-6.79814306430381;-3.99809901591277;0.106635071090047;-0.952164009111617;0.136674259681093;0.735747046896495;0.654932435413627;0.0991573801923981;0.141094301726337
2017/12/05 16:23:36.932;-0.256741883848641;9.71951219512195;2.50345667754706;-1.14022575368493;-0.425406763606936;-2.84510276184798;0.111374407582938;-0.954441913439636;0.150341685649203;0.736491682177621;0.65396090809427;0.100141327619065;0.141020733476983
2017/12/05 16:23:36.942;-0.314579179754666;9.28048780487805;2.1896252925398;-2.39176874112251;7.54052821177563;-3.67460635154219;0.116113744075829;-0.956719817767654;0.145785876993166;0.736887772303333;0.653231554068334;0.101739880016509;0.1411876220266
2017/12/05 16:23:36.952;-0.679793907179955;9.80487804878049;2.12573218141013;0.0215357818099193;6.25049884895589;1.27386699548469;0.111374407582938;-0.949886104783599;0.148063781321185;0.736845841132982;0.653029432877659;0.1034461812205;0.141101572604304
2017/12/05 16:23:36.962;-0.140732327002386;9.40243902439024;1.87811074901913;1.14239040588657;-1.38726139406144;1.05594273443494;0.111374407582938;-0.949886104783599;0.148063781321185;0.7364606047759;0.653367186049813;0.103829162241545;0.141267840907562
2017/12/05 16:23:36.972;-0.179602962419009;9.79268292682927;2.10663770531557;2.05464851269211;-4.44396328819339;-0.38430658156836;0.116113744075829;-0.952164009111617;0.152619589977221;0.736266632553788;0.653549939862827;0.104160502911718;0.141189629670092
2017/12/05 16:23:36.982;0.0269705618330321;9.34146341463415;2.18099259718459;-0.815939390377951;-2.91851624195818;1.38263781155131;0.106635071090047;-0.96127562642369;0.136674259681093;0.736494132922129;0.653204930119146;0.104062925757935;0.141670811821
2017/12/05 16:23:36.992;-0.0103339651341948;9.89024390243902;2.25290870854143;-3.10361670368156;-4.61771830837584;3.37546169991345;0.113744075829384;-0.949886104783599;0.150341685649203;0.736671338191822;0.652938025479056;0.103819895308455;0.142157320276946
2017/12/05 16:23:37.002;0.248388326021938;9.53658536585366;1.99043569048913;0.615903822584396;0.608325875264917;-1.83107466718765;0.118483412322275;-0.952164009111617;0.14123006833713;0.736394950141926;0.653098515586319;0.103878735121173;0.142807614411986
2017/12/05 16:23:37.012;-0.168975168307442;9.62195121951219;2.26337048928078;-0.581569758238813;4.73907916309239;-3.40867273889115;0.113744075829384;-0.949886104783599;0.145785876993166;0.736619991938884;0.652604335029481;0.104949166008201;0.143123170489166
2017/12/05 16:23:37.022;-0.448591638044541;9.48780487804878;2.17623697518582;1.99759342421542;7.54972029826251;-0.0552370879760586;0.116113744075829;-0.956719817767654;0.134396355353075;0.736695446410338;0.652225132805495;0.106508341232377;0.143311439260984
2017/12/05 16:23:37.032;-0.496042079600444;9.60975609756098;2.04323235028833;1.22135405275336;3.81495349421207;1.25805451222673;0.113744075829384;-0.952164009111617;0.150341685649203;0.736484881522848;0.652247918129523;0.107724652881024;0.143380862550211
2017/12/05 16:23:37.042;-0.179000613015395;9.57317073170732;2.04640276495418;1.88689844537255;-2.68946934566606;2.68369704769515;0.111374407582938;-0.96127562642369;0.145785876993166;0.736239782789196;0.652440356332393;0.107924157530233;0.143613856882848
2017/12/05 16:23:37.052;0.198648956732302;9.60975609756098;2.08632383896491;1.2789503759796;-2.57826193075226;2.15297068490798;0.113744075829384;-0.949886104783599;0.150341685649203;0.735956687033917;0.652651581596249;0.107541597849091;0.14439000166923
2017/12/05 16:23:37.062;0.284126744539769;9.62195121951219;2.0751304240719;1.37783916748574;1.58747904619414;1.61518161356604;0.111374407582938;-0.958997722095672;0.148063781321185;0.735623144126256;0.652826483234144;0.107345411728067;0.145441174345069
2017/12/05 16:23:37.072;0.248508795902661;9.60975609756098;1.97838870241686;1.12294761682198;2.82642730021527;0.261959842316026;0.111374407582938;-0.958997722095672;0.148063781321185;0.735219170330305;0.653066564076206;0.107414432853931;0.146352226082099
2017/12/05 16:23:37.082;0.151318985057122;9.62195121951219;1.94127222599515;0.804680397146693;3.22903460737326;-0.66442896728086;0.111374407582938;-0.954441913439636;0.152619589977221;0.73481167231262;0.653308635315033;0.107737960319594;0.147078771962897
2017/12/05 16:23:37.092;-0.00696080847395719;9.62195121951219;1.91559304251767;-0.0238891081529891;3.32333033710836;-1.01684611628281;0.113744075829384;-0.952164009111617;0.152619589977221;0.734488949471404;0.653461705657487;0.108332865473304;0.147572939938002
2017/12/05 16:23:37.102;-0.129502183487205;9.59756097560975;1.97460859262296;-0.499356679139467;1.69224194670483;-1.29681191707934;0.111374407582938;-0.96127562642369;0.143507972665148;0.734390003803199;0.653410419666158;0.109012350307045;0.147791925578385
2017/12/05 16:23:37.112;-0.227173873855635;9.57317073170732;1.98568006849036;-0.637152934766376;0.428212278536712;-0.461167339298999;0.109004739336493;-0.956719817767654;0.145785876993166;0.734328698347993;0.653343976058331;0.109701953087498;0.147879996009001
2017/12/05 16:23:37.122;-0.348871959703824;9.51219512195122;1.96036670208971;-1.29666220775726;0.777381298704653;0.930553941940137;0.104265402843602;-0.958997722095672;0.150341685649203;0.734264091593433;0.653271817917627;0.110495426183821;0.147928822423236
2017/12/05 16:23:37.132;-0.202545128972263;9.70731707317073;1.96182997039702;-1.99493278838718;-3.62020133894207;4.98533813021306;0.104265402843602;-0.949886104783599;0.145785876993166;0.734157888590084;0.653326712269575;0.110516273392767;0.148197688819206
2017/12/05 16:23:37.142;0.404740601461452;9.48780487804878;2.20886668312305;-1.79963742394314;-12.4591767548932;-0.67839107649401;0.109004739336493;-0.949886104783599;0.14123006833713;0.734472232998869;0.653092314013329;0.109220864260731;0.148633008246854
2017/12/05 16:23:37.152;0.342566389849408;9.73170731707317;2.32872686871777;-0.161550218838264;-0.560995289093479;3.14945326638274;0.113744075829384;-0.940774487471526;0.150341685649203;0.73457814240159;0.652777513531875;0.108650754391977;0.149904916874083
2017/12/05 16:23:37.162;0.441804188667234;9.53658536585366;2.16104454791077;-0.233881424119459;2.06228067937227;-1.99206188578943;0.113744075829384;-0.96127562642369;0.14123006833713;0.734578895670923;0.652561036179414;0.108440672477915;0.150991922459033
2017/12/05 16:23:37.172;0.259377529775674;9.68292682926829;2.11102751023752;0.790479013554832;2.09333122813906;-2.07139815429951;0.116113744075829;-0.949886104783599;0.152619589977221;0.734390941854614;0.652563024301873;0.108637436565333;0.151754246109952
2017/12/05 16:23:37.182;-0.0320714328802206;9.54878048780488;1.98763109290011;-0.718309419098698;6.9910690800138;-3.19162812240907;0.116113744075829;-0.949886104783599;0.152619589977221;0.734226513852162;0.652451555411274;0.109683558532656;0.152275773468809
2017/12/05 16:23:37.192;-0.228137632901417;9.59756097560975;2.08205597306858;0.253029795321652;3.28527668417238;-3.2629180390235;0.118483412322275;-0.949886104783599;0.150341685649203;0.734237248358257;0.652234155616682;0.110810419522299;0.152339490269535
2017/12/05 16:23:37.202;-0.325327443746956;9.60975609756098;2.04493949664687;0.0540643544301893;1.97648419190981;-2.48956896405185;0.116113744075829;-0.949886104783599;0.143507972665148;0.734264283565357;0.652038344103128;0.111930115980038;0.152228804226395
2017/12/05 16:23:37.212;-0.236958378802143;9.40243902439024;1.74461836801921;-0.357442616591665;4.79410316411236;1.6789422877045;0.113744075829384;-0.952164009111617;0.150341685649203;0.73383715189657;0.652274370068689;0.112806861008548;0.152629593320639
2017/12/05 16:23:37.222;0.127653999219531;9.90243902439024;1.86874641951027;-2.91078173121558;-14.431568351284;8.96621485608958;0.113744075829384;-0.956719817767654;0.143507972665148;0.7336333506296;0.652670969650642;0.111464957020295;0.152899560417093
2017/12/05 16:23:37.232;0.820417517460714;9.73170731707317;2.10458971734328;-4.46642529493802;-22.5099866850708;1.37688333310281;0.111374407582938;-0.949886104783599;0.143507972665148;0.733828100936673;0.652797991360217;0.1089295473048;0.15324964755494
2017/12/05 16:23:37.242;0.612518824520722;9.57317073170732;2.1627516942693;-5.87305611108374;-5.8128450858911;3.37225442874718;0.111374407582938;-0.954441913439636;0.148063781321185;0.734064895392617;0.652457246050555;0.107643789924948;0.154470339932771
2017/12/05 16:23:37.252;0.292224671156158;9.4390243902439;2.48484995755493;-0.12999362136164;-5.35429107737081;-3.14880451707901;0.111374407582938;-0.945330296127563;0.145785876993166;0.734752177003295;0.651609151275311;0.107290147029964;0.155027664348906
2017/12/05 16:23:37.262;0.170647055188692;9.32926829268293;2.44748960308201;-0.0624456323242389;2.83785633449862;-0.880943586019766;0.106635071090047;-0.963553530751708;0.14123006833713;0.735340084730595;0.650680875014416;0.107585518663557;0.155931763450455
2017/12/05 16:23:37.272;0.160019261077125;9.90243902439024;2.29075681911679;-0.691868808238422;2.32047030125964;2.4461620071675;0.118483412322275;-0.949886104783599;0.143507972665148;0.735387694210702;0.650380820827785;0.107789479867372;0.156815672471741
2017/12/05 16:23:37.282;0.210240509889652;9.74390243902439;2.14668071835191;-0.525311513893626;-2.18166839706615;-2.71061868975419;0.111374407582938;-0.958997722095672;0.145785876993166;0.735336540787973;0.650342389914463;0.107938100712388;0.157112424960358
2017/12/05 16:23:37.292;-0.362872910475629;8.97560975609756;2.14094958414825;1.30492832367637;5.11475062100222;-7.69291384000977;0.111374407582938;-0.958997722095672;0.145785876993166;0.735626463483406;0.649796595062772;0.109856171758102;0.156683479647281
2017/12/05 16:23:37.302;-0.702615603852486;9.12195121951219;1.96887745841931;3.38709308761315;10.8300575431812;-2.82421120163066;0.109004739336493;-0.958997722095672;0.145785876993166;0.735425624551409;0.649674017783369;0.112295787815129;0.156404850977725
2017/12/05 16:23:37.312;-0.382562390249368;9.68292682926829;1.67087317127823;-0.686579680408727;8.14982342753826;0.448822147838322;0.123222748815166;-0.945330296127563;0.143507972665148;0.734900060447361;0.649960450332876;0.113693860317039;0.156674887214768
2017/12/05 16:23:37.322;0.397847373652291;9.67073170731707;1.67867726891725;0.260721741546562;-7.92815491624791;1.59007558848286;0.116113744075829;-0.954441913439636;0.138952164009112;0.734304644988959;0.65068368530622;0.112931416176394;0.157015684771775
2017/12/05 16:23:37.332;0.515569953436628;10.0609756097561;2.10154124170304;-2.21574133156796;-13.8440843502796;3.16789039861069;0.113744075829384;-0.943052391799544;0.143507972665148;0.734208290373102;0.650940983278373;0.111436739404756;0.157467062418868
2017/12/05 16:23:37.342;0.647534423754216;9.63414634146341;2.31972835628573;-1.86570700364395;-12.4685635369493;-1.25257217496827;0.118483412322275;-0.956719817767654;0.145785876993166;0.734516929372429;0.650688366572395;0.109938336339707;0.158123661339802
2017/12/05 16:23:37.352;-0.0232506869794948;9.25609756097561;2.32506869794948;-0.987382011287887;-0.0651592309411376;-2.56123273039456;0.116113744075829;-0.952164009111617;0.143507972665148;0.735075353904406;0.649888453972472;0.1105387431789;0.158399519355367
2017/12/05 16:23:37.362;-0.289107145706235;9.71951219512195;2.08144627794053;-1.92097040294872;11.1559712203447;-0.619814924034019;0.116113744075829;-0.956719817767654;0.145785876993166;0.735030371222699;0.649534888294418;0.112157732727514;0.158919555933191
2017/12/05 16:23:37.372;-0.325447913627679;9.48780487804878;2.05698648471914;0.660583639868421;2.30075093866577;-0.1204796456993;0.116113744075829;-0.954441913439636;0.143507972665148;0.734970653502775;0.649412486683038;0.113258825269589;0.158915068915473
2017/12/05 16:23:37.382;-0.116464991761182;9.85365853658536;1.89040161514263;0.415586442708417;-2.26632370357603;-3.32224386327395;0.116113744075829;-0.954441913439636;0.145785876993166;0.734643548157888;0.649727891258306;0.113876097053098;0.158697066737157
2017/12/05 16:23:37.392;-0.130345472652265;9.54878048780488;2.0589375091289;-1.94660613184136;-4.57354004361358;-2.55522408039722;0.12085308056872;-0.954441913439636;0.138952164009112;0.734811975024853;0.64951964256149;0.114282483225586;0.158477472577851
2017/12/05 16:23:37.401;-0.132032050982383;9.74390243902439;2.22759534214078;0.36763867837065;-4.15016779017928;2.00618900279925;0.12085308056872;-0.954441913439636;0.138952164009112;0.734951218062889;0.649295600750955;0.114465527821691;0.158617694012472
2017/12/05 16:23:37.411;0.24802691637977;9.54878048780488;2.02657665470597;-1.26929835914682;-6.41292519887039;-0.159825044882667;0.118483412322275;-0.945330296127563;0.145785876993166;0.73483532389601;0.649417748063443;0.11400415383653;0.158986440185538
2017/12/05 16:23:37.421;0.357169690024826;9.70731707317073;2.08790904629784;-2.75634534576962;-6.25459885514955;-0.863866376119272;0.123222748815166;-0.949886104783599;0.143507972665148;0.734850092443247;0.649384307423108;0.113420293317426;0.159471627484484
2017/12/05 16:23:37.431;0.234387375250133;9.29268292682927;2.17101857254768;-1.7266578799107;3.09855686903329;-2.74524817413103;0.118483412322275;-0.949886104783599;0.143507972665148;0.735004998921387;0.648957852361076;0.11369804815242;0.160293827909256
2017/12/05 16:23:37.441;-0.167529529738769;9.67073170731707;2.11880663241346;0.994721953165825;9.18558814903267;-1.76607662792676;0.118483412322275;-0.954441913439636;0.136674259681093;0.734898828721402;0.648712863884136;0.115064772318901;0.160796237351355
2017/12/05 16:23:37.451;-0.322556636490333;9.41463414634146;1.76785877098449;0.113525136284185;0.852860601383681;0.946920194460922;0.118483412322275;-0.945330296127563;0.143507972665148;0.734521900655145;0.648994492715729;0.115936001413436;0.160756242363619
2017/12/05 16:23:37.461;-0.0327942521645573;9.74390243902439;2.05991302133378;-1.49038322011109;-4.38871511659936;-5.90912374097138;0.111374407582938;-0.949886104783599;0.145785876993166;0.734546068622584;0.648958782637486;0.116366118842237;0.160478964024489
